Time (s),Acceleration x (m/s^2),Acceleration y (m/s^2),Acceleration z (m/s^2),Absolute acceleration (m/s^2)
0.000493083,-1.141526184,0.271834717,9.288783875,9.362610854
0.010545083,-1.239572296,0.289947052,9.301657104,9.388366933
0.020597083,-1.334774323,0.354462891,9.427994385,9.528606643
0.030648083,-1.362317047,0.374072113,9.747280426,9.849127544
0.040700083,-1.154100037,0.373173981,9.890233154,9.964332269
0.050752083,-0.882714386,0.368084564,9.841284943,9.887646851
0.060804083,-0.731229401,0.301473083,9.735604706,9.767680454
0.070856083,-0.668659515,0.210312653,9.580527191,9.606135447
0.080907083,-0.780177612,0.127235413,9.620194702,9.652616851
0.090959083,-0.872535553,0.168250122,9.781409454,9.821690145
0.101011083,-0.862207031,0.303119659,9.879305878,9.921490166
0.111063083,-0.847537537,0.418829041,9.947563934,9.992385394
0.121115083,-0.865200806,0.447120209,9.880503387,9.928385372
0.131166083,-0.888552246,0.423020325,9.830357666,9.879494073
0.141218083,-0.865649872,0.415984955,9.749226379,9.79641813
0.151270083,-0.796044617,0.400567017,9.648186493,9.689254025
0.161322083,-0.760718079,0.402213593,9.602531433,9.641010201
0.171374083,-0.740061035,0.416434021,9.61345871,9.650890943
0.181426083,-0.799337769,0.410147095,9.705966339,9.74745834
0.191477083,-0.8798703,0.411793671,9.755962372,9.804210706
0.201529083,-0.97821579,0.399519196,9.778864746,9.835787586
0.211581083,-1.08584198,0.404458923,9.75147171,9.820073337
0.221633083,-0.934806061,0.413140869,9.737101593,9.790592177
0.231685083,-0.848884735,0.364641724,9.73859848,9.782324327
0.241736083,-0.919088745,0.284258881,9.674831085,9.722545128
0.251788083,-1.00036972,0.207618256,9.632768555,9.686799004
0.261840083,-0.993334351,0.199984131,9.657317505,9.710328943
0.271892083,-0.943488007,0.211210785,9.624236298,9.672678219
0.281944083,-0.924028473,0.210911407,9.58771225,9.634445413
0.291995083,-0.868344269,0.19893631,9.548044739,9.589512801
0.302047083,-0.836759949,0.149239655,9.536668396,9.574470418
0.312099083,-0.793200531,0.096698914,9.587263184,9.620505866
0.322151083,-0.750688934,0.099393311,9.64624054,9.675916983
0.332203083,-0.762963409,0.113763428,9.644743652,9.675543158
0.342254083,-0.770597534,0.164807281,9.585466919,9.617804222
0.352306083,-0.77344162,0.182021484,9.581275635,9.614165931
0.362359292,-0.834514618,0.1977388,9.606872406,9.645077123
0.372411292,-0.83900528,0.25162674,9.617350616,9.657156867
0.382463292,-0.806373138,0.300275574,9.56540863,9.604032764
0.392514292,-0.819695435,0.268691254,9.514963531,9.553984855
0.402566292,-0.725391541,0.276475067,9.465266876,9.497047351
0.412618292,-0.626297607,0.317190399,9.460476837,9.486489363
0.422670292,-0.668809204,0.377065887,9.501341858,9.532312497
0.432722292,-0.870140533,0.398171997,9.485175476,9.533322574
0.442774292,-1.128353577,0.390238495,9.4437117,9.518884313
0.452825292,-1.268462219,0.30895752,9.341623993,9.432411673
0.462877292,-1.112486572,0.432600403,9.414372711,9.489740936
0.472929292,-0.737366638,0.661474457,9.766590271,9.816697181
0.482981292,-0.781375122,0.489931183,9.519304504,9.563876719
0.493033292,-0.742156677,0.197289734,8.986412659,9.01916472
0.503084292,-0.58857605,0.010927277,9.054221649,9.073338462
0.513136292,-0.454155579,-0.172142029,9.501192169,9.513597784
0.523188292,-0.278870087,-0.30895752,9.874964905,9.883731843
0.533240292,0.014968872,-0.356408844,10.05489075,10.06121659
0.543292292,0.128133545,-0.449664917,10.16670822,10.17745414
0.553343292,0.096399536,-0.556542664,10.20053787,10.21616393
0.563395292,0.097896423,-0.614621887,10.10713211,10.12627588
0.573447292,0.122744751,-0.672701111,10.00444565,10.02778768
0.583499292,0.277373199,-0.744551697,9.844428406,9.876439832
0.593551292,0.550106049,-0.746048584,9.856104126,9.899595633
0.603602292,0.706530762,-0.732875977,10.05893234,10.1103122
0.613654292,0.79799057,-0.749341736,10.26355682,10.32176829
0.623706292,0.928219757,-0.546363831,10.75214081,10.80595379
0.633758292,1.108145599,-0.319286041,11.3321846,11.3907128
0.643810292,1.167422333,-0.340392151,11.44070892,11.50515373
0.653861292,0.889001312,-0.62480072,10.76321777,10.81792753
0.663913292,0.47151947,-0.83661026,9.724228363,9.77153338
0.673965292,0.193397827,-0.784518585,8.741521912,8.778785648
0.684017292,0.104333038,-0.533340912,7.952961731,7.9715079
0.694069292,0.227526855,-0.118852844,7.725584564,7.729848079
0.704120292,0.463735657,0.159568176,7.931256866,7.946404737
0.714172292,0.674347687,0.304766235,8.20458847,8.237894102
0.724224292,0.797840881,0.318387909,8.472381592,8.515818855
0.734276292,0.770447845,0.066012726,8.636290741,8.670839943
0.744328292,0.744701385,0.003293152,8.568032684,8.600335754
0.754379292,0.832868042,0.126037903,8.71951767,8.760110908
0.764431292,0.842897186,0.251327362,9.034163361,9.076879901
0.774483292,0.894390106,0.398171997,9.267827454,9.319393774
0.784535292,0.936153259,0.536334686,9.273365936,9.335917395
0.794587292,0.849333801,0.550555115,9.317823486,9.372636415
0.804639292,0.717458038,0.487685852,9.40284668,9.442780799
0.814690292,0.580941925,0.442030792,9.357490997,9.385921505
0.824742292,0.474962311,0.466130676,9.303603058,9.327373524
0.834794292,0.476908264,0.56627243,9.223220215,9.252885879
0.844846292,0.598455505,0.660726013,9.157506866,9.20079561
0.854898292,0.715512085,0.598006439,9.111103363,9.158699347
0.864949292,0.840951233,0.411943359,9.204808502,9.252318405
0.875001292,1.05425766,0.273032227,9.31737442,9.380803372
0.885053292,1.236129456,0.220940552,9.390422516,9.474010016
0.895105292,1.370100861,0.174237671,9.547146606,9.646530125
0.905157292,1.478026428,0.188757477,9.730215912,9.843642273
0.915208292,1.556912384,0.284109192,9.776469727,9.903739421
0.925260292,1.616338806,0.432301025,9.6812677,9.824783947
0.935312292,1.676813049,0.569565582,9.627978516,9.7894881
0.945364292,1.61708725,0.465531921,9.484127655,9.632256668
0.955416292,1.118324432,-0.054486694,9.094787292,9.163447726
0.965467292,1.281485138,0.240849152,8.569828949,8.668458957
0.975519292,1.507814484,0.814156952,8.35786972,8.531725636
0.985571292,1.457219696,1.422342224,8.106093292,8.35794802
0.995623292,1.198707275,1.697919159,7.726183319,8.000858534
1.005675292,1.201401672,1.609453125,7.443421326,7.709619081
1.015726292,1.502276001,1.315913544,7.224277039,7.495241181
1.025778292,1.644180908,0.944984894,7.320826263,7.562461536
1.035830292,1.672771454,0.620010681,7.581584015,7.788645181
1.045882292,1.706451416,0.315992889,8.004454651,8.190428694
1.055934292,1.50122818,0.118403778,8.447084198,8.580264387
1.065985292,1.490001526,0.227077789,8.271798706,8.407991597
1.076037292,1.920955353,0.271834717,7.802374878,8.039963763
1.086089292,2.439776459,0.145946503,7.748037872,8.124401542
1.096141292,2.853366394,0.137713623,7.643704834,8.160078946
1.106193292,3.266507263,0.278271332,7.451953583,8.141198734
1.116244292,3.504063263,0.628992004,7.506290588,8.307736677
1.126296292,3.789968719,0.900078278,7.517517242,8.466821676
1.136348292,3.982767792,1.160087585,7.534731445,8.601187153
1.146400292,4.167783051,1.528321838,7.730524292,8.914437112
1.156452292,4.392166443,1.983076172,8.020770721,9.35716197
1.166503292,4.350103912,2.314636688,8.597371674,9.909376708
1.176555292,4.4006987,2.212998047,9.217082977,10.45074773
1.186607292,4.951104126,1.887425079,9.745484161,11.09280249
1.196659292,6.098318481,1.717229004,9.976453857,11.81812148
1.206711292,7.420968018,1.726509705,9.489815826,12.16997151
1.216762292,8.303682404,1.511107635,8.647367706,12.08352415
1.226814292,7.77168869,1.012344818,8.25847641,11.38535989
1.236866292,6.281986542,0.640817413,8.011040955,10.20052837
1.246918292,5.136568451,0.605490875,7.859406281,9.408571716
1.256970292,4.297114105,0.770298157,8.227640533,9.314108526
1.267021292,3.591182098,1.25199646,9.107810211,9.869969141
1.277073292,3.347937927,1.689386902,9.97151413,10.65334739
1.287125292,3.47277832,1.819316711,10.44617706,11.15763047
1.297177292,3.771557007,1.886526947,10.9102121,11.69685232
1.307229292,3.980223083,1.843416595,10.94658646,11.79271451
1.317280292,4.084556122,1.787582703,10.53883438,11.44316743
1.327332292,3.690276031,2.147434387,9.860744476,10.74541266
1.337384292,3.495381317,2.409090271,9.711355133,10.59867091
1.347436292,3.689677277,2.202819214,8.708740082,9.711245271
1.357487708,2.89123764,2.186203766,7.67693573,8.489645705
1.367538708,2.104024658,2.378404083,7.430997162,8.081054669
1.377590708,1.637594604,2.605032806,7.494614868,8.101676619
1.387642708,1.381177826,2.83046402,7.510481873,8.144109326
1.397694708,1.368304596,2.862347717,7.595505066,8.231463365
1.407746708,1.387464752,2.536026306,7.825426941,8.342289534
1.417797708,1.496438141,2.033670959,8.048912201,8.435646525
1.427849708,1.881886597,1.486858063,8.358618164,8.69590373
1.437901708,2.438728638,1.024768982,8.557105408,8.95665126
1.447953708,3.002306671,0.949325867,8.330177307,8.905443218
1.458005708,3.561543732,0.923280029,8.503816223,9.265631663
1.468056708,3.694916382,0.954714661,9.648336182,10.37565797
1.478108708,3.310665436,1.096170502,10.30202682,10.87629772
1.488160708,2.946472778,1.22625,11.28293701,11.72561549
1.498212708,2.366878052,1.315763855,12.19993011,12.49686525
1.508264708,1.871857452,1.332828369,12.84808228,13.05195387
1.518315708,1.469344482,1.081051941,13.11288162,13.23915824
1.528367708,1.170715485,0.715961151,13.10584625,13.17749525
1.538419708,1.202000427,0.49382309,13.16781738,13.23178298
1.548471708,1.539997559,0.514031067,13.10225372,13.20245708
1.558523708,2.193538513,0.61192749,11.61973663,11.84079161
1.568574708,2.775378571,0.870439911,10.64810715,11.03823254
1.578626708,2.681224365,1.198407898,11.37185211,11.74496343
1.588678708,2.008223877,1.132844238,11.07591751,11.3133659
1.598730708,1.318757629,0.856369171,11.96761322,12.07047041
1.608782708,0.846340027,0.658480682,12.87098465,12.91557719
1.618833708,0.818198547,0.693358154,13.7342395,13.77604911
1.628885708,0.818797302,0.79679306,14.20965088,14.25550723
1.638937708,0.657881927,0.586929474,13.81267639,13.8407848
1.648989708,0.493374023,0.231269073,12.91783722,12.9293241
1.659041708,0.300574951,0.123343506,11.45747406,11.46207969
1.669092708,0.369431763,0.087567902,10.27418472,10.28119739
1.679144708,0.684227142,0.017214203,9.279503174,9.304710757
1.689196708,0.991388397,0.061222687,8.270900574,8.330329854
1.699248708,1.717079315,0.408949585,7.747439117,7.945968413
1.709300708,2.475402374,0.61192749,7.629783783,8.044605195
1.719351708,2.754571838,0.506846008,8.359216919,8.815955217
1.729403708,2.753973083,0.373922424,9.475296021,9.874483298
1.739455708,2.630779266,0.182021484,10.25158173,10.58532282
1.749507708,2.454445953,0.046403503,10.4151915,10.70059214
1.759559708,2.167342987,-0.118852844,10.53718781,10.75843058
1.769610708,1.732197876,-0.353564758,10.61188248,10.75813958
1.779662708,1.421593781,-0.198487244,10.35711227,10.45610352
1.789714708,1.14901062,-0.229921875,10.13796799,10.20546346
1.799766708,0.624351654,-0.483344879,10.14410522,10.17478786
1.809818708,0.733325043,-0.747246094,9.954748993,10.00965383
1.819869708,0.764609985,-0.736318817,9.561816101,9.620557207
1.829921708,0.680035858,-0.580492859,9.571096802,9.612768317
1.839973708,0.698447571,-0.512234802,9.435179443,9.474852222
1.850025708,0.686023407,-0.760418701,8.924591217,8.983161643
1.860076708,0.449964294,-0.74305481,8.943751373,8.985838133
1.870128708,0.21300705,-0.53588562,9.483079834,9.500597273
1.880180708,0.218545532,-0.810414734,9.69414093,9.730411223
1.890232708,0.439336395,-0.977167969,9.770332489,9.828899768
1.900284708,0.524060211,-0.686771851,9.31273407,9.352716746
1.910335708,0.865649872,-0.540675659,8.603359222,8.663686847
1.920387708,1.050814819,-0.675844574,8.02331543,8.120010354
1.930439708,0.143102417,-0.400866394,8.056546326,8.067782277
1.940491708,-0.065713348,-0.113763428,7.672744446,7.673869147
1.950543708,0.21300705,-0.043709106,7.293882294,7.297122817
1.960594708,0.348924408,-0.199984131,7.530240784,7.540972627
1.970646708,0.302520905,-0.420176239,7.862549744,7.87957838
1.980698708,0.291743317,-0.60264679,8.031548309,8.059408512
1.990750708,0.299826508,-0.696351929,8.203989716,8.238947093
2.000802708,0.182320862,-0.844394073,8.43166626,8.475803098
2.010853708,0.03622467,-0.997076569,9.117240601,9.171671063
2.020905708,0.008083191,-0.986598358,9.735455017,9.78532197
2.030957708,0.048349457,-0.715063019,10.06117767,10.08667185
2.041009708,-0.047900391,-0.580792236,10.40950333,10.42580326
2.051061708,-0.223634949,-0.629441071,11.00481537,11.02507007
2.061112708,-0.443377991,-0.83661026,11.46136597,11.50040915
2.071164708,-0.53588562,-0.952169952,11.24880798,11.30174686
2.081216708,-0.409847717,-0.924627228,10.66562073,10.71346705
2.091268708,-0.265697479,-0.912801819,10.27014313,10.31405072
2.101319708,-0.245339813,-1.032103729,10.1828746,10.23798637
2.111371708,-0.225431213,-1.166374512,10.29289581,10.36122353
2.121423708,-0.105530548,-1.269659729,10.65888474,10.73475646
2.131475708,-0.010927277,-1.369651794,11.12501541,11.20901572
2.141527708,-0.094902649,-1.496288452,11.44699585,11.54476503
2.151579708,-0.21180954,-1.66858017,11.75280991,11.87255506
2.161630708,-0.296533356,-1.824256439,11.82002014,11.96364157
2.171682708,-0.237705688,-1.798360291,11.72466843,11.86416678
2.181734708,-0.020058289,-1.591490479,11.55507111,11.66417218
2.191786708,0.167651367,-1.383123779,11.42738663,11.51200693
2.201837708,0.268541565,-1.184187469,11.25853775,11.32382828
2.211889708,0.333356781,-0.977766724,11.03370529,11.08195863
2.221941708,0.408650208,-0.824036407,10.92847412,10.96711346
2.231993708,0.418829041,-0.649649048,10.81381256,10.8414023
2.242045708,0.451910248,-0.539328461,10.66187851,10.68507143
2.252096708,0.471669159,-0.471220093,10.37776932,10.39916421
2.262148708,0.539627838,-0.343685303,10.12494507,10.14513827
2.272200708,0.64006897,-0.196690979,9.949509888,9.972016979
2.282252708,0.704135742,-0.176782379,9.909992065,9.936548792
2.292304708,0.606838074,-0.366587677,9.992769928,10.01788849
2.302355708,0.362396393,-0.653840332,10.14156052,10.16907508
2.312407708,0.133222961,-0.929117889,10.22793091,10.27090936
2.322459708,0,-1.175056458,10.40351578,10.46966562
2.332511708,-0.092058563,-1.400337982,10.5704187,10.66316898
2.342563708,-0.152832184,-1.562750244,10.67744614,10.79228437
2.352614708,-0.247285767,-1.680854645,10.91694809,11.04835636
2.362666208,-0.299976196,-1.711391144,11.11932724,11.25425625
2.372718208,-0.422571259,-1.741927643,11.13983459,11.28311983
2.382770208,-0.58273819,-1.720222778,11.20973923,11.35592373
2.392821208,-0.618663483,-1.659898224,11.15495316,11.29473269
2.402873208,-0.645158386,-1.491797791,10.92787537,11.04808354
2.412925208,-0.574954376,-1.171613617,10.66262695,10.74220017
2.422977208,-0.368982697,-0.795445862,10.26026367,10.29766444
2.433029208,-0.154628448,-0.508642273,9.824370117,9.838743574
2.443080208,-0.05493576,-0.352666626,9.412426758,9.419191534
2.453132208,-0.099542999,-0.289947052,8.904832306,8.910107547
2.463184208,-0.181273041,-0.268391876,8.466244354,8.472436933
2.473236208,-0.160765686,-0.31359787,8.254285126,8.261804413
2.483287208,-0.085023193,-0.40131546,8.294850769,8.3049884
2.493339208,0.127085724,-0.525257721,8.667725372,8.684555808
2.503391208,0.257614288,-0.761017456,9.073232117,9.108735024
2.513443208,0.302520905,-0.959953766,9.452842712,9.506275058
2.523495208,0.449215851,-1.135089569,9.823921051,9.899477159
2.533546208,0.627046051,-1.39240448,10.20053787,10.31421106
2.543598208,0.955463104,-1.635199585,10.71561676,10.88169242
2.553650208,1.334924011,-1.716929626,11.12052475,11.33119324
2.563702208,1.654659119,-1.699416046,11.40732834,11.65131115
2.573754208,1.960622864,-1.671723633,11.61539566,11.89773585
2.583805208,2.077829132,-1.554667053,11.97749268,12.2553945
2.593857208,1.906884613,-1.401535492,12.36264175,12.58711332
2.603909208,1.527274017,-1.432071991,12.57145752,12.74460436
2.613961208,1.034648438,-1.445244598,12.31863327,12.44620243
2.624013208,0.46104126,-1.29061615,11.99755096,12.07557362
2.634064208,0.307161255,-1.267564087,11.90698929,11.97820774
2.644116208,1.164129181,-1.374741211,12.24333984,12.37515578
2.654168208,3.106490021,-0.95366684,11.8430722,12.2808029
2.664220208,3.682641907,-1.791474609,12.42670853,13.08412464
2.674271208,4.570146332,-2.414928131,13.63304993,14.58006055
2.684323208,5.437592468,-2.481988678,14.67578156,15.84633219
2.694375208,5.395979004,-2.361040192,14.21384216,15.38585094
2.704427208,4.634961548,-2.447111206,12.96094757,13.98060742
2.714479208,3.398383026,-2.536475372,11.69413193,12.43926992
2.724530208,2.806513824,-2.406096497,10.7084317,11.32856256
2.734582208,2.536175995,-2.429897003,10.27104126,10.85499317
2.744634208,2.147584076,-2.467468872,10.40995239,10.91181144
2.754686208,1.897454224,-2.538421326,10.08707382,10.57321964
2.764738208,2.139500885,-2.433339844,9.820777588,10.34148342
2.774789208,2.004182281,-2.902314606,10.03617966,10.63790763
2.784841208,1.917213135,-3.230881348,11.08564728,11.70495092
2.794893208,1.896406403,-3.506009216,11.2247081,11.91144533
2.804945208,1.647923126,-3.769910431,10.77414505,11.53299947
2.814996208,1.47084137,-4.043691101,9.822274475,10.72342706
2.825048208,1.657353516,-4.31522644,9.129215698,10.23281873
2.835100208,2.175276489,-4.190236359,8.366701355,9.606851727
2.845152208,3.56872879,-3.069217529,7.001540222,8.43667511
2.855204208,4.184847565,-2.287992096,6.881489868,8.372739084
2.865255208,4.315675507,-2.094294891,7.87227951,9.21867186
2.875307208,4.348307648,-1.844314728,8.534502411,9.754332761
2.885359208,3.719315643,-1.527124329,8.590036926,9.484416269
2.895411208,3.565884705,-1.401834869,7.611821136,8.521765999
2.905463208,3.088527374,-1.233584747,6.560557251,7.355381983
2.915514208,2.521955566,-1.139580231,5.025649109,5.737251254
2.925566208,2.447709961,-1.126856689,4.041894836,4.857777673
2.935618208,2.64440094,-1.179098053,3.557352448,4.586707423
2.945670208,3.004102936,-1.202748871,3.972139893,5.12339093
2.955721208,5.150339813,-1.07536377,4.834646301,7.145362992
2.965773208,6.679110718,-0.634380798,4.640799408,8.157816995
2.975825208,7.286697235,-0.041763153,2.790497131,7.802856848
2.985877208,7.91568924,0.6728508,1.297801208,8.049543609
2.995929208,7.517068176,0.829874268,1.188977509,7.655630136
3.005980208,7.564968567,1.254840546,1.147962799,7.753785708
3.016032208,7.322173462,1.689985657,1.255588989,7.618843707
3.026084208,8.180189209,3.021915894,3.006198578,9.224136873
3.036136208,9.576335907,4.387675781,5.132975922,11.71773656
3.046187208,8.057145081,4.299808502,7.660170593,11.91990577
3.056239208,5.917045441,3.532653809,6.457421722,9.444012123
3.066291208,4.626129913,2.778522034,6.202052765,8.221114351
3.076343208,3.844305725,2.56955658,10.34858002,11.33465553
3.086395208,3.509452057,2.933000793,7.217690735,8.544811697
3.096446208,1.769021301,2.378254395,7.991581421,8.523549961
3.106498208,0.629740448,0.530945892,9.962532806,9.996526221
3.116550208,-0.603395233,-0.767454071,9.814790039,9.863223361
3.126602208,-1.757794647,-1.222358093,8.28182785,8.554102751
3.136654208,-2.461181946,-0.669108582,8.05250473,8.446771886
3.146705208,-2.02424057,-0.046702881,6.65665741,6.957788364
3.156757208,-1.628463593,0.266595612,7.016509094,7.207937761
3.166809208,-1.159788208,1.078656921,8.790619812,8.932166933
3.176861208,-1.272204437,1.74926239,9.682914276,9.921554914
3.186912208,-2.00313446,1.999841309,10.15877472,10.54573927
3.196964208,-3.282374268,2.004032593,10.19110748,10.89260296
3.207016208,-4.54574707,1.682800598,10.12808853,11.22825951
3.217068208,-5.461692352,1.279389496,10.27104126,11.70304274
3.227120208,-6.105054474,0.936752014,10.36145325,12.06270732
3.237171208,-6.272406464,0.540975037,10.4244722,12.17806871
3.247223208,-5.617218933,0.083526306,10.30546967,11.73724117
3.257275208,-4.816983032,-0.422571259,9.970615997,11.08129394
3.267327208,-4.474046173,-0.587228851,9.423503723,10.44817445
3.277378208,-4.759203186,-0.442030792,8.506360931,9.757232317
3.287430208,-5.267546082,-0.49142807,7.636220398,9.289801141
3.297482208,-5.63158905,-0.847537537,6.947352905,8.983252612
3.307534208,-5.457201691,-0.952918396,6.634802856,8.643478045
3.317586208,-4.374503174,-0.998872833,6.844067688,8.183843075
3.327637208,-3.059188385,-1.080453186,6.867568817,7.595361355
3.337689208,-2.080972595,-1.32220047,7.293582916,7.699026742
3.347741208,-1.496887207,-1.671124878,7.900570679,8.212937764
3.357793458,-1.724114685,-2.084714813,8.059240723,8.501174526
3.367845458,-1.879491577,-2.582878876,8.226742401,8.825136963
3.377896458,-2.091899872,-3.091521149,8.481213226,9.266311341
3.387948458,-1.768721924,-3.543132019,8.967252502,9.802743452
3.398000458,-1.034947815,-3.513343964,8.890761566,9.615630193
3.408052458,-1.471739502,-3.704346771,8.791368256,9.652790165
3.418103458,-1.887574768,-4.492906952,8.708889771,9.979674966
3.428155458,-2.08276886,-5.167703705,8.218808899,9.92934577
3.438207458,-2.285896454,-5.261259155,7.596403198,9.519007934
3.448259458,-2.641107788,-5.06411911,6.989714813,9.026453671
3.458310458,-3.181035004,-5.183570709,6.430028687,8.850630367
3.468362458,-3.949387207,-5.516628113,6.062542877,9.098641172
3.478414458,-4.857997742,-5.759572906,5.969586182,9.612948627
3.488466458,-5.989045715,-6.090983734,5.992937622,10.43475217
3.498518458,-7.248825989,-6.233637085,6.356232147,11.48065314
3.508569458,-8.428373108,-6.337970123,7.059469757,12.69028966
3.518621458,-9.425449677,-6.566395111,7.741750946,13.85248548
3.528673458,-10.2810704,-6.234834595,8.493787079,14.72134471
3.538725458,-10.62191162,-5.867797852,8.921597443,15.06157226
3.548776458,-11.07696533,-5.520220642,9.231752472,15.44011822
3.558828458,-11.55896301,-4.88628891,9.767937469,15.90276855
3.568880458,-12.00114349,-4.321663055,10.29888336,16.39424336
3.578932458,-12.51262985,-3.978576508,10.92712692,17.08206895
3.588984458,-12.85496796,-3.610641632,11.92555069,17.9026728
3.599035458,-13.01618271,-3.133284302,12.91334656,18.60088713
3.609087458,-13.24879898,-2.692001953,13.41225906,19.043798
3.619139458,-13.54323669,-2.193688202,13.30882416,19.11429644
3.629191458,-13.80668884,-1.704655151,12.50769012,18.70756046
3.639242458,-14.08825333,-1.204395447,11.13414642,17.99718497
3.649294458,-14.37116501,-0.623303833,9.338031464,17.14986073
3.659346458,-14.54315735,0.040266266,7.430997162,16.33171044
3.669398458,-14.52324875,0.81670166,5.838309174,15.67410635
3.679450458,-14.60018875,1.555265808,4.482728119,15.35184727
3.689501458,-14.7043721,2.219584351,3.63189743,15.30803033
3.699553458,-14.85555771,2.955304413,3.248544617,15.4911091
3.709605458,-15.13337997,3.609893188,2.818039856,15.81113111
3.719657458,-15.00554581,3.727099457,3.4120047,15.83349145
3.729708458,-14.25291092,3.392545166,4.088597717,15.2108995
3.739760458,-13.79920441,3.398083649,2.130070496,14.37018493
3.749812458,-12.65707947,6.837780762,-10.14889526,17.60559518
3.759864458,-9.674531708,7.325316925,-5.053940277,13.14530883
3.769916458,-11.89471481,2.986739044,1.624721375,12.37111839
3.779967458,-10.84105591,1.186133423,-0.943637695,10.9464998
3.790019458,-10.63897614,-0.184416504,-4.244124298,11.45575898
3.800071458,-12.22013809,-1.588646393,-5.592071228,13.53243633
3.810123458,-13.47318237,-3.022963715,-0.692909088,13.82552263
3.820174458,-11.47828079,-1.446891174,4.501439209,12.41399931
3.830226458,-8.556506653,-0.128582611,5.176235962,10.00118785
3.840278458,-7.790699158,-0.487536163,4.796475677,9.16181553
3.850330458,-7.841443634,-0.885558472,4.878505096,9.277513894
3.860381458,-8.278235321,-1.37953125,4.999303894,9.768588738
3.870433458,-8.671766968,-1.978435822,4.529580688,9.981525528
3.880485458,-9.033564606,-2.402803345,3.637136536,10.03032978
3.890537458,-8.993597717,-2.667902069,2.493215332,9.706627841
3.900589458,-8.390801239,-2.877017212,1.680854645,9.028180648
3.910640458,-7.449408875,-3.273243256,1.49419281,8.272872908
3.920692458,-6.495292969,-4.10581192,1.631457367,7.855455137
3.930744458,-5.620512085,-4.588408356,1.783541107,7.471590608
3.940796458,-4.89092926,-5.133424988,1.114881592,7.177478812
3.950847458,-4.784051514,-5.501060486,0.695304108,7.323405161
3.960899458,-4.392615509,-5.565726013,1.554816742,7.258776217
3.970951458,-3.812422028,-5.952371979,2.413730621,7.469363387
3.981003458,-3.488345947,-6.247408447,2.875969391,7.711671005
3.991055458,-3.907923431,-5.98844696,3.176095276,7.824381365
4.001106458,-4.637506256,-5.856571198,3.503763885,8.251196994
4.011158458,-5.166805573,-5.506598969,3.608995056,8.369190961
4.021210458,-6.031108246,-4.698878632,3.778442688,8.528209438
4.031262458,-7.949967957,-3.895349579,3.986659698,9.709232431
4.041313458,-8.663085022,-3.02236496,4.183650055,10.08398036
4.051365458,-9.147178345,-2.870281219,4.609065399,10.63733377
4.061417458,-11.3706546,-3.460653534,5.243595886,12.99088938
4.071469458,-14.40559341,-3.914360046,6.26582016,16.18962132
4.081520458,-16.58880341,-3.785777435,7.113956451,18.44258349
4.091572458,-16.72187668,-3.179538116,5.27937149,17.82140246
4.101624458,-15.65983521,-3.277135162,-0.482746124,16.00634553
4.111676458,-12.66501297,-3.671265564,-2.011517029,13.33892594
4.121728458,-8.298742676,-2.046993256,-0.796044617,8.584462617
4.131779458,-6.165528717,-0.202977905,-1.757644958,6.414379174
4.141831458,-7.160060577,-0.610131226,-2.100731506,7.486775036
4.151883458,-8.244106293,-2.271676025,-0.989592133,8.608431513
4.161935458,-8.957373047,-3.291056213,0.640817413,9.564320669
4.171986458,-8.456963654,-3.370540924,1.928739166,9.305955896
4.182038458,-7.071444855,-3.333268433,2.475552063,8.200266386
4.192090458,-6.077362061,-3.630400543,2.335742798,7.454517566
4.202142458,-5.081333313,-3.827091522,1.830094299,6.619352151
4.212193458,-4.055666199,-3.568130035,1.538201294,5.616586462
4.222245458,-3.747307434,-3.688629456,1.612596588,5.499888001
4.232297458,-3.279530182,-4.199966125,1.768422546,5.614476999
4.242349458,-2.35654953,-4.181554413,2.433040466,5.381301785
4.252401458,-2.092199249,-3.868555298,3.22474411,5.453621949
4.262452458,-2.302811279,-3.969744873,4.296964417,6.286948174
4.272504458,-3.238066406,-4.879403229,5.859415283,8.284105104
4.282556458,-4.783901825,-5.362598419,7.184609528,10.16178097
4.292608458,-5.457950134,-4.884792023,8.287066956,11.06010359
4.302659458,-6.640790405,-4.531975708,7.861501923,11.24464822
4.312711458,-8.64227829,-4.211941223,4.900958405,10.79114527
4.322763458,-10.58942917,-3.576811981,-0.482746124,11.18761091
4.332815458,-11.67841461,-3.373085632,-5.830675049,13.48183393
4.342867458,-12.14918564,-3.924389191,-7.444319458,14.77908774
4.352918458,-12.1337677,-4.869673462,-4.972509613,13.9881339
4.362971042,-11.15031281,-5.491630096,-1.594633942,12.53117449
4.373023042,-11.3640683,-6.614744568,0.823437653,13.17478438
4.383075042,-11.63006516,-6.795269165,1.942510529,13.60909423
4.393126042,-11.82750458,-6.799610138,2.081271973,13.80058896
4.403178042,-12.7177034,-6.105952606,3.365301819,14.50337524
4.413230042,-13.64427658,-5.263953552,5.016518097,15.46094901
4.423282042,-13.24879898,-4.992867279,4.235592041,14.77835032
4.433333042,-13.28577209,-4.825066223,2.50279541,14.35468527
4.443385042,-13.63454681,-4.43108551,2.238894196,14.51027336
4.453437042,-12.42745697,-5.225333862,7.556585999,15.45470131
4.463489042,-11.86402863,-5.222789154,8.952732697,15.75386062
4.473541042,-11.94875244,-6.142776031,6.787036285,15.05225046
4.483592042,-11.61539566,-6.086642761,4.987328796,14.02989968
4.493644042,-11.80056061,-5.01262619,5.37532196,13.90229255
4.503696042,-13.43201797,-4.371210022,1.476978607,14.20239592
4.513748042,-14.29063248,-3.390748901,-2.60697876,14.91695991
4.523799042,-14.21459061,-2.992427216,-1.508413239,14.60426367
4.533851042,-14.48926941,-3.006198578,2.098785553,14.94593787
4.543903042,-14.56740692,-2.859503632,4.006119232,15.37644617
4.553955042,-13.98047745,-2.803819427,3.660787354,14.72129468
4.564006042,-12.37701187,-2.553839264,1.220561829,12.69654634
4.574058042,-10.27388535,-1.974543915,-1.428030396,10.55892109
4.584110042,-8.806935883,-1.93772049,-2.05582489,9.248961905
4.594162042,-8.611442413,-2.215542755,1.160836029,8.967335748
4.604214042,-8.836723938,-2.998863831,4.349954224,10.29577467
4.614265042,-7.168592834,-3.308569794,4.264481964,8.973358553
4.624317042,-4.981640625,-3.272644501,2.340383148,6.403463018
4.634369042,-4.741839294,-2.935545502,1.007854156,5.667295412
4.644421042,-6.662345581,-2.867137756,2.822829895,7.783039006
4.654472042,-8.004304962,-2.446213074,4.624932404,9.562575807
4.664524042,-8.525072021,-2.213147736,5.302124176,10.28043757
4.674576042,-6.509363708,-1.996248779,6.195017395,9.205165159
4.684628042,-8.389154663,-2.590213623,5.745352478,10.49267352
4.694679042,-9.072333984,-3.022215271,5.674250336,11.11926913
4.704731042,-7.201674042,-2.157313843,6.658154297,10.04236679
4.714783042,-6.611900482,-1.697170715,6.134243774,9.177503098
4.724835042,-6.492149506,-1.962718506,4.785398712,8.300621059
4.734886042,-6.897207184,-2.096240845,3.460054779,7.996103532
4.744938042,-8.153843994,-1.788331146,3.033890991,8.881880134
4.754990042,-9.574689331,-1.21217926,3.91510849,10.41499538
4.765042042,-9.372160492,-0.906664581,4.757257233,10.54945161
4.775094042,-7.993078308,-0.92208252,3.97947464,8.976399914
4.785145042,-7.116800537,-0.14040802,3.106040955,7.76634114
4.795197042,-5.963149567,0.629740448,2.726130981,6.586920063
4.805249042,-4.927902374,0.272882538,2.559677124,5.559733237
4.815301042,-5.096601563,-0.119002533,3.182980957,6.01006463
4.825352042,-5.223836975,-0.27617569,3.751199341,6.4370989
4.835404042,-5.861361237,0.42706192,4.409230957,7.347057578
4.845456042,-6.352789307,1.213227081,4.645589447,7.96312459
4.855508042,-6.714736633,1.204844513,5.348827057,8.668868971
4.865559042,-6.842271423,0.662971344,3.913012848,7.909986017
4.875611042,-5.361550598,-0.971928864,-4.274211731,6.925298293
4.885663042,-5.315596161,0.079484711,-3.182082825,6.195767222
4.895715042,-4.096531219,0.894839172,1.534459076,4.465072209
4.905766042,-4.461622009,-0.844992828,3.233875122,5.574767452
4.915818042,-6.047274628,-5.357658691,3.518134003,8.811997727
4.925870042,-3.337609406,-2.699935455,2.504441986,4.970062139
4.935922042,-4.745581512,-0.814606018,-0.842597809,4.88815895
4.945974042,-8.455167389,-4.129163361,1.356628876,9.506854766
4.956025042,-6.927743683,-2.235002289,1.957778778,7.538021326
4.966077042,-8.05489975,-0.243094482,1.577569427,8.211530321
4.976129042,-11.46870071,-1.834285583,2.949316864,11.98307847
4.986181042,-9.69997879,-0.2468367,3.705544281,10.38660557
4.996232042,-8.474327545,1.615290985,4.437971191,9.701493731
5.006284042,-11.41810593,-1.459165649,3.746409302,12.10528356
5.016336042,-12.02599182,-1.583706665,4.156706085,12.82227794
5.026388042,-11.48366959,-0.750838623,4.077071686,12.20905153
5.036439042,-9.599088593,1.233435059,3.307072906,10.22744323
5.046491042,-8.584498444,2.170037384,2.893782349,9.315398653
5.056543042,-8.254434814,1.197060699,0.904868317,8.389721992
5.066595042,-8.36490509,1.04602478,2.584076385,8.817213606
5.076647042,-9.902956696,2.752326508,-2.337688751,10.54080838
5.086698042,-13.25538528,1.589245148,-2.315235443,13.54958502
5.096750042,-16.81618057,0.444425812,5.387746124,17.66378362
5.106802042,-16.9883226,-0.324375458,9.514514465,19.47393925
5.116854042,-12.92996201,-1.225202179,9.309590607,15.97978458
5.126905042,-8.758885803,1.217568054,1.977537689,9.061523481
5.136957042,-14.90630219,1.665736084,-0.930764465,15.02793545
5.147009042,-18.02521637,-0.913550262,5.680237885,18.92110202
5.157061042,-10.80977097,0.69380722,4.495002594,11.72764107
5.167112042,-8.41759552,0.649199982,2.975063324,8.951445511
5.177164042,-5.027295685,-0.160466309,-0.864901428,5.103675717
5.187216042,-9.638307037,-3.126847687,1.000070343,10.18205675
5.197268042,-10.16521133,-4.671635284,4.832700348,12.18649623
5.207319042,-7.695048065,-4.41237442,1.349593506,8.972414133
5.217371042,-9.33608551,-4.574487305,-2.082469482,10.60307059
5.227423042,-7.749834137,-7.744295654,14.46861237,18.14868558
5.237475042,-8.28542038,-13.00809952,14.8450795,21.40642962
5.247526042,-9.390721893,-11.29536118,1.750160522,14.79303565
5.257578042,-10.17269577,-6.531517639,-0.639021149,12.1058998
5.267630042,-12.48972748,-6.026916962,0.990490265,13.9031684
5.277682042,-12.82263519,-5.630391541,0.421673126,14.01067773
5.287734042,-11.7887352,-5.812862091,0.036074982,13.14400794
5.297785042,-10.32717453,-5.572162628,0.91729248,11.77034221
5.307837042,-9.197174377,-5.084626465,2.58826767,10.82314983
5.317889042,-8.984317017,-4.876559143,3.437601471,10.78498425
5.327941042,-9.795629883,-4.54694458,3.452121277,11.33782215
5.337992042,-11.53710846,-4.381538544,3.990850983,12.97033705
5.348044042,-10.69855225,-3.781885529,5.518424377,12.61803019
5.358096042,-7.975564728,-2.234553223,4.23334671,9.301832357
5.368148333,-7.463479614,-0.816252594,3.235970764,8.175653065
5.378199333,-8.268355865,0.148491211,1.092128906,8.341492906
5.388251333,-8.928034058,-0.18726059,-1.592238922,9.070836976
5.398303333,-8.093070374,-0.715512085,-3.694617004,8.925241757
5.408355333,-6.426735535,0.536035309,-3.559298401,7.366061946
5.418406333,-6.147865448,1.96226944,2.452050934,6.90357188
5.428458333,-5.957461395,1.751507721,-0.022153931,6.209638989
5.438510333,-5.837261353,1.424886932,-7.073839874,9.281332525
5.448562333,-7.138505402,-0.278121643,-8.414601746,11.03816713
5.458613333,-8.633895721,-0.989442444,-6.848258972,11.06443865
5.468665333,-7.43234436,-1.738933868,-5.476212158,9.394281947
5.478717333,-5.858816528,-2.43498642,-3.37098999,7.184599049
5.488769333,-4.862488403,-2.567610626,-1.457668762,5.688691943
5.498821333,-4.30235321,-1.494342499,-0.138312378,4.55658128
5.508872333,-3.457809448,-1.142424316,0.711021423,3.710408463
5.518924333,-3.239413605,-3.2633638,1.973795471,5.003919699
5.528976333,-3.525319061,-4.201313324,3.631148987,6.577549019
5.539028333,-4.102967834,-4.689448242,-0.048648834,6.231182599
5.549079333,-4.167932739,-5.189558258,-2.959046631,7.284170179
5.559131333,-4.215533752,-5.077441406,-3.489992523,7.465332134
5.569183333,-4.934488678,-4.351151733,-3.264710999,7.344388186
5.579235333,-6.275998993,-3.17908905,-3.046464844,7.666532371
5.589286333,-7.062912598,-2.542911987,-3.224145355,8.169837759
5.599338333,-7.738008728,-2.330653381,-4.085154877,9.05523134
5.609390333,-8.37313797,-1.526675262,-5.683531036,10.2343882
5.619442333,-9.739197235,0.460143127,-6.540199585,11.74043888
5.629493333,-11.32619705,1.844464417,-5.323529663,12.6500892
5.639545333,-12.06790466,2.232756958,-4.382436676,13.0317028
5.649597333,-12.7136618,1.696422272,-3.883075104,13.40124312
5.659649333,-12.56576935,1.056053925,-3.271297302,13.02747847
5.669700333,-12.16131042,0.448467407,-2.03831131,12.3390967
5.679752333,-11.43337418,0.252973938,-0.086819458,11.43650202
5.689804333,-10.41983185,0.391885071,1.904489594,10.59969576
5.699856333,-8.14725769,0.661923523,2.820434875,8.647011247
5.709908333,-6.32195343,0.504900055,3.353775787,7.174247784
5.719959333,-5.956263885,-0.523311768,3.635789337,6.997849583
5.730011333,-5.803282013,-1.661993866,3.686833191,7.07340404
5.740063333,-6.37344635,-2.647993469,3.335064697,7.665203476
5.750115333,-6.804699554,-4.324806519,3.836821289,8.929114461
5.760166333,-6.237828369,-5.994733887,3.446433105,9.312638632
5.770218333,-6.358327789,-7.391329651,0.465232544,9.760969604
5.780270333,-7.892637177,-9.341474304,-12.81709671,17.71538404
5.790322333,-7.303312683,-9.309590607,-15.3148027,19.3532952
5.800373333,-6.2891716,-9.870923309,-7.148983612,13.7148377
5.810425333,-5.939199371,-10.29858398,-4.21703064,12.614209
5.820477333,-3.421584778,-7.932454376,-2.660866699,9.03942954
5.830529333,-0.763861542,-5.955665131,-0.161364441,6.006618856
5.840580333,0.624052277,-4.967869263,1.69193161,5.285054288
5.850632333,1.27774292,-4.606969757,2.27811264,5.29590356
5.860684333,0.786913605,-5.854475555,1.14197525,6.016496034
5.870736333,0.050744476,-8.822204132,-0.140857086,8.823474456
5.880787333,-0.129480743,-13.27215042,-0.281564484,13.27576817
5.890839333,-0.123493195,-18.93816788,1.086590424,18.96971618
5.900891333,-0.922381897,-24.52380249,2.689157867,24.68803854
5.910943333,-2.095043335,-28.12471436,1.641486511,28.25036711
5.920995333,-2.186203766,-27.82668411,0.649649048,27.91999068
5.931046333,-1.159488831,-23.40847183,1.247954865,23.47037194
5.941098333,-1.050964508,-18.18373672,0.748144226,18.22944123
5.951150333,-1.463955688,-13.42692856,0.24923172,13.50880058
5.961202333,-1.622326355,-10.03812561,0.810115356,10.2005978
5.971253333,-1.637295227,-7.717052307,1.791474609,8.089685609
5.981305333,-1.597478027,-5.809718628,1.949845276,6.332982171
5.991357333,-1.537153473,-4.673880615,1.345102844,5.100715878
6.001409333,-1.605112152,-4.364623718,1.326242065,4.835829116
6.011460333,-1.663341064,-4.80785202,0.867146759,5.16082242
6.021512333,-2.027084656,-6.157595215,0.58154068,6.508704986
6.031564333,-2.320175171,-7.615263977,0.504001923,7.976808648
6.041616333,-2.612068176,-8.513845367,0.34398468,8.912170811
6.051667333,-2.863694916,-8.853189697,-0.007933502,9.304825594
6.061719333,-2.890189819,-9.045539703,-0.034727783,9.49611456
6.071771333,-2.912792816,-9.096134491,0.30895752,9.556122614
6.081823333,-2.843636627,-9.129365387,0.097297668,9.562481293
6.091874333,-3.013233948,-8.991352386,1.343456268,9.577519058
6.101926333,-2.929108887,-9.081165619,1.443298645,9.650407186
6.111978333,-2.78241394,-9.308842163,1.125060425,9.780701954
6.122030333,-2.806214447,-9.510173492,1.004710693,9.966327456
6.132081333,-2.832110596,-9.987231445,0.788560181,10.41093029
6.142133333,-3.006198578,-10.70034851,0.595312042,11.13054736
6.152185333,-3.615281982,-11.00152222,0.633332977,11.59762327
6.162237333,-4.528981934,-11.21063736,0.499211884,12.10120985
6.172288333,-5.544470215,-11.03610031,-0.127684479,12.35123327
6.182340333,-5.795498199,-10.09830048,-1.325493622,11.71837895
6.192392333,-5.239554291,-9.174870758,-2.136357422,10.779388
6.202444333,-4.77162735,-8.323740692,-2.185455322,9.84018809
6.212495333,-4.469106445,-8.140521698,-2.25595871,9.556691668
6.222547333,-4.4006987,-8.199049988,-4.749473419,10.44739525
6.232599333,-4.792134705,-8.697663116,-7.135361938,12.22813513
6.242651333,-4.970413971,-9.447753296,-2.665656738,11.00321695
6.252703333,-4.950355682,-9.840237122,0.033829651,11.01532716
6.262754333,-5.203928375,-10.29633865,0.271235962,11.53988861
6.272806333,-5.476810913,-10.78597046,0.227676544,12.0989443
6.282858333,-5.686973877,-11.27560226,0.243842926,12.63092782
6.292910333,-5.641618195,-11.46645538,0.199385376,12.78073587
6.302961333,-5.361400909,-11.06124802,0.205522614,12.29382231
6.313013333,-4.805457001,-10.55544983,0.174686737,11.59915745
6.323065333,-4.32585434,-10.56263489,0.161663818,11.41527077
6.333117333,-4.057163086,-10.875634,0.298778687,11.61160006
6.343168333,-3.795058136,-11.35194351,0.404608612,11.97634318
6.353220333,-3.226240997,-11.67048111,0.420176239,12.11549868
6.363273167,-2.799029388,-11.35388947,0.51133667,11.70499196
6.373325167,-2.894680481,-10.66127975,0.647254028,11.06620978
6.383376167,-3.208727417,-10.22089554,0.462837524,10.72272614
6.393428167,-3.134481812,-9.503587189,-3.496429138,10.60038501
6.403480167,-3.004552002,-9.398056641,-17.08906311,19.73288827
6.413532167,-2.593955841,-11.03520218,-11.08145599,15.852538
6.423583167,-1.403182068,-11.92644882,-1.608704681,12.11598251
6.433635167,-0.232466583,-11.8020575,3.360362091,12.27333024
6.443687167,0.10178833,-11.36900803,3.937711487,12.03205203
6.453739167,0.142353973,-11.00750977,3.811374207,11.64955404
6.463790167,-0.099243622,-10.89105194,3.614084473,11.47547246
6.473842167,-0.886306915,-11.23623413,3.362906799,11.76212734
6.483894167,-2.139351196,-11.78334641,2.03831131,12.14820106
6.493946167,-3.500171356,-12.37686218,-0.980610809,12.89959358
6.503997167,-4.24502243,-12.1217926,-1.764231262,12.96420392
6.514049167,-3.591780853,-11.03565125,-0.532891846,11.61767885
6.524101167,-2.736908569,-10.10683273,-0.190553741,10.4725855
6.534153167,-2.694097595,-9.872869263,-0.948128357,10.27767759
6.544204167,-2.443219299,-9.364526367,-1.048719177,9.734653899
6.554256167,-2.015558624,-8.344547424,-0.47032196,8.597392106
6.564308167,-1.830842743,-7.607629852,0.057630157,7.825045582
6.574360167,-1.918260956,-6.853498077,0.483793945,7.133317431
6.584411167,-2.001787262,-6.279441833,0.71955368,6.629954712
6.594463167,-1.925895081,-5.898484039,0.243842926,6.209721829
6.604515167,-1.884580994,-5.66901123,0.072748718,5.97449799
6.614567167,-1.848056946,-5.873186646,-0.104033661,6.157958984
6.624618167,-1.811083832,-6.392007751,-0.323477325,6.651497976
6.634670167,-1.717378693,-6.839726715,-0.52540741,7.071584268
6.644722167,-1.591789856,-7.106472015,-0.670006714,7.313319933
6.654774167,-1.562450867,-7.225773926,-0.565224609,7.41434693
6.664825167,-1.48012207,-7.298822021,-0.552351379,7.467841475
6.674877167,-1.372645569,-7.37157074,-0.777782593,7.538511577
6.684929167,-1.343905334,-7.484585724,-1.052910461,7.67683043
6.694981167,-1.410516815,-7.661817169,-1.262624359,7.892225307
6.705032167,-1.606758728,-8.007149048,-1.800156555,8.362814903
6.715084167,-1.967658234,-8.554411011,-2.458038483,9.115458291
6.725136167,-2.468816071,-9.236542511,-2.94273056,10.00342109
6.735188167,-3.04107605,-9.958191833,-3.327879639,10.93108005
6.745239167,-3.84250946,-10.57805283,-3.803440704,11.87965663
6.755291167,-5.176685028,-11.14193024,-4.815186768,13.19570767
6.765343167,-6.016289063,-11.43097916,-5.291346588,13.95927531
6.775395167,-5.891748047,-11.32634674,-4.902455292,13.67599698
6.785447167,-5.847440186,-11.12142288,-4.9740065,13.5136725
6.795498167,-5.969436493,-10.82533859,-4.757706299,13.24605213
6.805550167,-5.335654449,-10.4656366,-3.245999908,12.1875048
6.815602167,-3.885919189,-10.34244278,-1.012644196,11.09468066
6.825654167,-2.523452454,-10.38450531,0.300874329,10.69094421
6.835705167,-1.38776413,-10.30172745,0.472118225,10.40549726
6.845757167,-0.757873993,-10.15069153,-0.13217514,10.17980264
6.855809167,-0.556243286,-9.715696106,-1.524729309,9.850327755
6.865861167,0.660276947,-9.018895111,-4.811145172,10.24321983
6.875912167,2.208657074,-8.618178406,-8.381520538,12.22297229
6.885964167,2.324366455,-8.906778259,-8.444988556,12.49204587
6.896016167,0.489781494,-9.434730377,-2.509980469,9.775173919
6.906068167,-1.314416656,-9.216334534,3.976780243,10.12340331
6.916119167,-3.254083099,-9.83335144,5.5579422,11.75476835
6.926171167,-4.26029068,-10.51458481,2.868784332,11.70198675
6.936223167,-4.184847565,-10.32298325,1.106349335,11.19379029
6.946275167,-4.262536011,-9.848020935,0.951122131,10.77299229
6.956326167,-4.955445099,-9.567653961,1.674118652,10.90408693
6.966378167,-5.643564148,-9.347910919,2.295027466,11.15797499
6.976430167,-6.252647552,-9.014404449,1.698517914,11.10135362
6.986482167,-6.652017059,-8.587342529,0.066312103,10.86260466
6.996533167,-6.614295502,-8.283474426,-1.460812225,10.70041242
7.006585167,-6.17690506,-8.11567337,-1.824855194,10.36090763
7.016637167,-5.659131775,-8.156538391,-1.464105377,10.034864
7.026689167,-4.981940002,-8.364306335,-1.19346817,9.808451098
7.036740167,-4.462969208,-8.706943817,-1.200353851,9.857475039
7.046792167,-4.096830597,-9.037606201,-1.318757629,10.01006836
7.056844167,-3.735032959,-9.286837921,-1.311572571,10.09534806
7.066896167,-3.39913147,-9.47769104,-1.037492523,10.1221101
7.076947167,-3.262914734,-9.587412872,-0.520617371,10.14081558
7.086999167,-3.438798981,-9.517657928,0.081430664,10.12016708
7.097051167,-3.576362915,-9.259893951,0.493074646,9.938769053
7.107103167,-3.646866302,-9.00617157,0.684676208,9.740613003
7.117154167,-3.52546875,-8.851543121,0.791254578,9.560587291
7.127206167,-3.476071472,-8.813522186,0.828976135,9.510438877
7.137258167,-3.557951202,-8.898246002,0.778980103,9.614811942
7.147310167,-3.616030426,-9.054820404,0.783321075,9.781566362
7.157361167,-3.628005524,-9.235045624,0.83196991,9.956940578
7.167413167,-3.645219727,-9.416019287,0.852626953,10.13291759
7.177465167,-3.602558441,-9.504485321,0.832868042,10.19839878
7.187517167,-3.474424896,-9.520502014,0.784668274,10.16500326
7.197568167,-3.319347382,-9.464967499,0.797541504,10.06179652
7.207620167,-3.303480377,-9.339378662,0.895587616,9.946811226
7.217672167,-3.336262207,-9.205257568,0.990340576,9.84114764
7.227724167,-3.360362091,-9.05526947,1.021026764,9.71248857
7.237775167,-3.31021637,-8.906778259,0.980161743,9.552431545
7.247827167,-3.30437851,-8.908125458,0.971330109,9.550764298
7.257879167,-3.290158081,-8.977131958,0.89513855,9.602880371
7.267931167,-3.21187088,-9.057065735,0.723445587,9.636904472
7.277982167,-3.036136322,-9.099577332,0.584833832,9.61053911
7.288034167,-3.028951263,-9.152716827,0.670156403,9.664154421
7.298086167,-3.085683289,-9.197773132,0.717907104,9.728096554
7.308138167,-3.110980682,-9.197174377,0.759969635,9.738776678
7.318189167,-3.087479553,-9.27875473,0.703686676,9.804233487
7.328241167,-3.081192627,-9.364676056,0.676892395,9.881755358
7.338293167,-3.02236496,-9.485774231,0.634380798,9.975822859
7.348345167,-2.965483246,-9.632319489,0.581690369,10.09524806
7.358396167,-2.850971375,-9.862989807,0.535436554,10.28072459
7.368446333,-2.765948181,-10.11910721,0.477057953,10.50116109
7.378498333,-2.648143158,-10.3699855,0.449515228,10.71220451
7.388550333,-2.437830505,-10.51593201,0.3662883,10.80101896
7.398601333,-2.197729797,-10.58778259,0.253572693,10.81644376
7.408653333,-1.974244537,-10.60140427,0.148341522,10.78468447
7.418705333,-1.633852386,-10.6129303,-0.019609222,10.73797689
7.428757333,-1.205892334,-10.59391983,-0.326022034,10.66731475
7.438808333,-0.500259705,-10.44078827,-1.241069183,10.52618507
7.448860333,0.048798523,-10.23017624,-1.683099976,10.36782102
7.458912333,0.034428406,-10.14605118,-1.336121521,10.23370708
7.468964333,-0.16031662,-10.05399261,-0.809815979,10.08782786
7.479015333,-0.228424988,-9.846074982,-0.180973663,9.850386895
7.489067333,-0.45400589,-9.605974274,0.472267914,9.628286456
7.499119333,-0.996328125,-9.491462402,1.107696533,9.607680255
7.509171333,-1.533710632,-9.522747345,1.440304871,9.752408083
7.519222333,-2.018103333,-9.659712524,1.52577713,9.985528677
7.529274333,-2.426154785,-9.878108368,1.364113312,10.26275095
7.539326333,-2.701881409,-10.01806732,1.191073151,10.44416063
7.549378333,-2.961291962,-10.0833316,1.125210114,10.56924425
7.559429333,-3.183579712,-10.1179097,1.000818787,10.65405626
7.569481333,-3.479514313,-9.989476776,0.717907104,10.60245522
7.579533333,-3.901187439,-9.800719299,0.133073273,10.54945831
7.589585333,-4.522994385,-9.614207153,-1.2461586,10.69782074
7.599636333,-5.00678833,-9.477840729,-2.586321716,11.02662479
7.609688333,-4.943919067,-9.306596832,-3.047662354,10.97011058
7.619740333,-4.624932404,-8.988957367,-2.909799042,10.51942416
7.629791333,-4.23918457,-8.474327545,-2.768941956,9.871775561
7.639843333,-3.915407867,-7.901917877,-2.827470245,9.26095637
7.649895333,-3.763922882,-7.420818329,-3.078049164,8.871868281
7.659947333,-3.832929382,-7.036717072,-3.33356781,8.678675541
7.669998333,-3.713178406,-6.629264374,-3.284170532,8.277718049
7.680050333,-4.205953674,-6.030958557,-1.167422333,7.444822518
7.690102333,-4.715344391,-5.396278381,1.529669037,7.327631299
7.700154333,-5.544320526,-5.094356232,2.718047791,8.004982155
7.710206333,-7.021598511,-5.435945892,1.796264648,9.059741722
7.720257333,-7.926766205,-6.326144714,-0.067060547,10.14190448
7.730309333,-8.272247772,-7.500901794,-0.861608276,11.19982052
7.740361333,-7.671546936,-8.689579926,-1.349294128,11.66970549
7.750412333,-7.504644012,-9.919721832,-1.473236389,12.5256133
7.760464333,-6.761140137,-10.28556107,-1.515448608,12.40170822
7.770516333,-5.293591919,-9.585017853,-1.303639069,11.02697408
7.780568333,-3.957919464,-9.09269165,-1.096918945,9.977244064
7.790619333,-2.703527985,-8.734935608,-0.791404266,9.177934645
7.800671333,-1.678609314,-8.359216919,-0.369880829,8.534110882
7.810723333,-1.099463654,-8.139324188,-0.019160156,8.213268879
7.820775333,-0.913250885,-8.319848785,0.188458099,8.371942872
7.830826333,-1.148112488,-8.750353546,0.007933502,8.82535622
7.840878333,-1.79491745,-9.184301147,-0.448916473,9.36881221
7.850930333,-2.644550629,-9.385033722,-0.998274078,9.801482394
7.860982333,-3.311413879,-9.193282471,-1.624571686,9.905611421
7.871033333,-3.551813965,-8.861572266,-2.280807037,9.81554513
7.881085333,-3.598816223,-8.792565765,-3.041525116,9.975548405
7.891137333,-3.891307983,-8.992699585,-4.010609894,10.58753585
7.901189333,-4.56565567,-9.468859406,-5.118456116,11.69201023
7.911240333,-5.538782043,-10.32552795,-6.186784515,13.25031836
7.921292333,-6.449338531,-11.39340729,-6.156248016,14.46731097
7.931344333,-7.034172363,-11.93917236,-4.490212555,14.56658595
7.941396333,-7.093898163,-11.47004791,-1.64627655,13.58659695
7.951447333,-6.261329498,-10.12823822,-0.592917023,11.92212259
7.961499333,-4.982688446,-8.489895172,-1.571282501,9.968672574
7.971551333,-3.720962219,-7.116201782,-1.363364868,8.145222612
7.981603333,-2.680026855,-6.458319855,-1.254092102,7.103885296
7.991654333,-1.650018768,-6.024671631,-1.951192474,6.544186907
8.001706333,-1.369651794,-6.432274017,-2.057321777,6.890766864
8.011758333,-2.097288666,-7.603438568,-0.763113098,7.924218536
8.021810333,-3.013383636,-8.801547089,1.326242065,9.397160747
8.031861333,-3.816313934,-9.845476227,2.516267395,10.85491851
8.041913333,-4.487967224,-10.65050217,2.777474213,11.88652217
8.051965333,-4.871769104,-10.89584198,2.863395538,12.27405967
8.062017333,-4.829107819,-10.53000275,2.549198914,11.86168855
8.072068333,-4.481231232,-9.952952728,2.00672699,11.09818249
8.082120333,-4.334835663,-9.513167267,1.353485413,10.54149299
8.092172333,-4.395160217,-9.195378113,0.681383057,10.21453351
8.102224333,-4.484374695,-9.020841064,0.203726349,10.07604557
8.112275333,-4.587061157,-9.045539703,0.011376343,10.14214218
8.122327333,-4.588558044,-9.090596008,-0.040415955,10.18309551
8.132379333,-4.457580414,-9.082961884,-0.105231171,10.11836416
8.142431333,-4.178560638,-9.041049042,-0.273032227,9.963708315
8.152482333,-3.918251953,-9.007069702,-0.363294525,9.829139632
8.162534333,-3.640579376,-8.86576355,-0.396974487,9.592349569
8.172586333,-3.398532715,-8.710985413,-0.301173706,9.355319186
8.182637333,-3.279380493,-8.678353271,-0.1486409,9.27848296
8.192689333,-3.306025085,-8.769663391,0.013771362,9.372138897
8.202741333,-3.470682678,-8.920250244,0.161364441,9.573011081
8.212793333,-3.656895447,-9.100625153,0.255219269,9.811187459
8.222844333,-3.805236969,-9.213340759,0.302820282,9.972821891
8.232896333,-3.895050201,-9.25884613,0.310454407,10.04957858
8.242948333,-3.946094055,-9.239386597,0.306263123,10.05145363
8.253000333,-3.92917923,-9.109307098,0.287102966,9.924734422
8.263051333,-3.899540863,-8.93596756,0.310005341,9.754693152
8.273103333,-3.831582184,-8.74990448,0.348475342,9.558414382
8.283155333,-3.780089264,-8.603209534,0.363593903,9.404067718
8.293207333,-3.735332336,-8.461005249,0.369132385,9.256218245
8.303258333,-3.700454865,-8.336314545,0.367336121,9.128112741
8.313310333,-3.671115875,-8.269403687,0.36269577,9.054925583
8.323362333,-3.713627472,-8.300688629,0.323776703,9.099301735
8.333414333,-3.826941833,-8.447233887,0.296832733,9.278434879
8.343465333,-3.930227051,-8.649613037,0.241597595,9.503728729
8.353517333,-3.977229309,-8.819210358,0.195643158,9.676523165
8.363569792,-3.962410126,-8.924740906,0.146395569,9.765916542
8.373621792,-3.89400238,-8.962013397,0.090711365,9.771855874
8.383672792,-3.791914673,-8.939560089,0.040565643,9.710612599
8.393724792,-3.650458832,-8.847351837,-0.037272491,9.570939006
8.403776792,-3.561543732,-8.776549072,-0.070952454,9.471929139
8.413828792,-3.525768127,-8.785231018,-0.077538757,9.466643396
8.423879792,-3.53250412,-8.839268646,-0.048798523,9.519119542
8.433931792,-3.604953461,-8.878038025,0.02335144,9.582055829
8.443983792,-3.73488327,-8.911717987,0.113913116,9.663386918
8.454035792,-3.850592651,-8.919501801,0.223784637,9.717749518
8.464086792,-3.965852966,-8.896000671,0.296832733,9.744481893
8.474138792,-4.017645264,-8.753946075,0.325572968,9.637377398
8.484190792,-4.017495575,-8.605305176,0.336200867,9.502872139
8.494241792,-4.014950867,-8.547375641,0.313897247,9.448597372
8.504293792,-4.04264328,-8.47028595,0.279019775,9.389705043
8.514345792,-4.060605927,-8.412057037,0.291593628,9.345386612
8.524397792,-4.136647797,-8.370443573,0.317789154,9.342225139
8.534448792,-4.252357178,-8.370593262,0.364042969,9.395844848
8.544500792,-4.384981384,-8.397387543,0.418379974,9.482574602
8.554552792,-4.511019287,-8.462202759,0.450413361,9.600054309
8.564604792,-4.639601898,-8.515342255,0.42242157,9.706461738
8.574655792,-4.703818359,-8.567583618,0.35685791,9.780426564
8.584707792,-4.702171783,-8.612490234,0.255818024,9.815846901
8.594759792,-4.715194702,-8.736881561,0.141006775,9.929050479
8.604811792,-4.727768555,-8.819659424,0.027093658,10.00694369
8.614862792,-4.664599915,-8.795260162,-0.078586578,9.95596653
8.624914792,-4.544100494,-8.683442688,-0.185015259,9.802308752
8.634966792,-4.45802948,-8.593629456,-0.218545532,9.683607603
8.645018792,-4.488266602,-8.663534088,-0.147742767,9.758236926
8.655069792,-4.616998901,-8.866212616,-0.038320313,9.996393022
8.665121792,-4.769531708,-9.018146667,0.071850586,10.20198826
8.675173792,-4.86638031,-9.095685425,0.224832458,10.31812484
8.685225792,-4.982987823,-9.216334534,0.399070129,10.4847626
8.695276792,-5.164111176,-9.488768005,0.788260803,10.83171813
8.705328792,-4.991969147,-9.832153931,1.255139923,11.0980351
8.715380792,-4.932243347,-9.815089417,0.737366638,11.00939209
8.725432792,-5.219945068,-9.676028595,-2.063159637,11.18615142
8.735483792,-6.545289001,-9.920170898,-14.40828781,18.67750937
8.745535792,-6.330036621,-10.53793625,-11.0283165,16.51487901
8.755587792,-4.670138397,-10.9950856,-1.620230713,12.05517514
8.765639792,-3.330723724,-11.00676132,2.661764832,11.80370736
8.775690792,-3.180735626,-11.06169708,2.377056885,11.75281332
8.785742792,-4.262536011,-11.89920547,0.588875427,12.65334258
8.795794792,-5.418582001,-13.30508194,-2.099384308,14.51873448
8.805845792,-5.040468292,-14.44481186,-3.189866638,15.62799281
8.815897792,-3.478466492,-14.46980988,-2.07453598,15.02593846
8.825949792,-2.199825439,-14.21024963,-0.595012665,14.39181944
8.836001792,-1.37953125,-13.66149078,-0.215851135,13.73266284
8.846052792,-1.940414886,-12.7283313,-0.048948212,12.87548149
8.856104792,-2.67718277,-11.67407364,0.321082306,11.98141881
8.866156792,-3.191064148,-10.56488022,0.579445038,11.05148592
8.876208792,-3.588487701,-9.732311554,0.797840881,10.40344569
8.886259792,-3.983665924,-9.230704651,0.732127533,10.08025363
8.896311792,-4.367767181,-8.737180939,0.198487244,9.770113515
8.906363792,-4.485721893,-8.175848236,-0.092208252,9.326022606
8.916415792,-4.962630157,-7.763006744,0.089813232,9.214121673
8.926466792,-5.684129791,-7.600594482,0.634380798,9.512139978
8.936518792,-6.223308563,-7.565417633,0.900826721,9.83750996
8.946570792,-6.365812225,-7.735164642,0.527952118,10.03170328
8.956622792,-6.055507507,-8.120313721,-0.549507294,10.14448739
8.966673792,-5.294490051,-8.612041168,-1.720821533,10.2547601
8.976725792,-4.641098785,-8.983568573,-2.10731781,10.3288475
8.986777792,-4.568200378,-9.270821228,-1.176403656,10.40194725
8.996828792,-4.4604245,-9.340576172,0.167950745,10.35229237
9.006880792,-4.383933563,-9.071735229,0.636626129,10.09557063
9.016932792,-3.46694046,-8.585695953,-0.654289398,9.28234592
9.026984792,-2.524649963,-8.083789673,-2.311193848,8.778560811
9.037035792,-2.426304474,-7.565567322,-3.186723175,8.56037189
9.047087792,-2.618953857,-6.984326019,-3.628903656,8.295099216
9.057139792,-3.048560486,-6.251899109,-3.719914398,7.887821412
9.067191792,-3.445235596,-5.406906281,-3.447331238,7.27931154
9.077242792,-3.644471283,-4.757257233,-3.083437958,6.739529431
9.087294792,-3.608995056,-4.561314697,-2.816243591,6.462326597
9.097346792,-3.529809723,-4.780608673,-2.839295654,6.585998465
9.107398792,-3.982468414,-5.267546082,-2.781216431,7.165351438
9.117449792,-4.730462952,-5.874833221,-2.464924164,7.935162018
9.127501792,-5.410798187,-6.507866821,-1.874102783,8.668409821
9.137553792,-6.010900269,-7.113058319,-1.196611633,9.389270477
9.147605792,-6.454128571,-7.513026581,-1.124012604,9.968186813
9.157656792,-6.640940094,-7.690856781,-1.693428497,10.30141075
9.167708792,-6.535858612,-7.641908569,-2.159858551,10.28499895
9.177760792,-6.287375336,-7.490124207,-2.66071701,10.1347158
9.187811792,-5.999972992,-7.392676849,-3.069816284,10.00375524
9.197863792,-5.670807495,-7.307054901,-2.779569855,9.658007949
9.207915792,-5.048850861,-7.021299133,-1.901645508,8.854704522
9.217967792,-4.818779297,-6.616391144,-1.616189117,8.343220778
9.228018792,-5.479205933,-6.101312256,-1.907633057,8.419428293
9.238070792,-5.403313751,-5.636229401,-1.232686615,7.904580801
9.248122792,-5.263504486,-5.298531647,-1.45213028,7.608390069
9.258174792,-5.317691803,-5.190007324,-2.067949677,7.713004473
9.268225792,-5.557642822,-5.069358215,-2.393522644,7.8939684
9.278277792,-5.015619965,-5.186115417,-2.271676025,7.563910941
9.288329792,-4.315675507,-5.364394684,-1.715133362,7.09531309
9.298381792,-4.058959351,-5.38355484,-1.137634277,6.837545281
9.308432792,-3.787274323,-5.589975586,-0.725092163,6.790952252
9.318484792,-3.636986847,-5.528752899,-0.205073547,6.620939292
9.328536792,-3.457510071,-5.54387146,0.161813507,6.535676726
9.338588792,-3.458258514,-5.667364655,-0.072898407,6.639569885
9.348639792,-3.565136261,-6.002966766,-0.747246094,7.021693762
9.358691792,-3.845503235,-6.628366241,-1.791773987,7.869789589
9.368743667,-4.358486481,-7.578739929,-3.131038971,9.286393722
9.378794667,-5.000651093,-8.683592377,-4.387675781,10.93905785
9.388846667,-5.801635437,-9.823471985,-5.610482941,12.71365779
9.398898667,-6.653214569,-10.79570023,-6.739584961,14.36086393
9.408950667,-7.2977742,-11.11887817,-7.084467773,15.06906247
9.419001667,-6.998845825,-10.58463913,-6.442901917,14.23128292
9.429053667,-5.895041199,-9.743089142,-5.369035034,12.58991001
9.439105667,-4.913083191,-9.480684814,-2.890040131,11.0622829
9.449157667,-3.653751984,-9.304201813,-0.863703918,10.03314803
9.459208667,-2.631976776,-9.048683167,0.116158447,9.424407758
9.469260667,-2.417023773,-9.133107605,-0.160765686,9.448889038
9.479312667,-2.036215668,-9.380393372,-3.751648407,10.3059604
9.489364667,-2.415826263,-9.991871796,-6.900650024,12.38114249
9.499415667,-3.953129425,-11.22291183,-5.308411102,13.02920607
9.509467667,-5.30990799,-12.16909424,-1.763931885,13.39378338
9.519519667,-6.594536591,-12.02733902,2.226170654,13.89606536
9.529570667,-7.449259186,-11.35269196,3.552712097,14.03555629
9.539622667,-7.26035202,-10.57251434,2.215991821,13.01542895
9.549674667,-6.842421112,-9.481133881,0.527353363,11.70421838
9.559726667,-6.526128845,-8.408913574,0.351169739,10.6500472
9.569777667,-5.930966492,-7.341034241,2.041604462,9.655842585
9.579829667,-5.61647049,-6.550977173,3.774401093,9.41839404
9.589881667,-5.536087646,-6.610553284,3.808829498,9.426285763
9.599933667,-5.043162689,-7.646399231,2.453398132,9.482619549
9.609984667,-4.218228149,-8.703650665,1.163979492,9.741757125
9.620036667,-3.580554199,-9.530231781,0.546962585,10.19533493
9.630088667,-3.174748077,-10.22493713,0.498762817,10.71807488
9.640140667,-2.840792542,-10.65529221,0.362845459,11.03344965
9.650191667,-2.814896393,-10.91140961,0.180823975,11.27010198
9.660243667,-2.902913361,-10.94239517,0.224982147,11.32314157
9.670295667,-2.665656738,-10.74854828,0.09834549,11.07459651
9.680347667,-2.288890228,-10.43195663,-0.018411713,10.68012531
9.690398667,-1.911674652,-10.17703674,-0.019609222,10.35504521
9.700450667,-1.648821259,-9.936936035,0.068108368,10.07303073
9.710502667,-1.509011993,-9.654174042,0.166902924,9.772822019
9.720553667,-1.514700165,-9.373208313,-0.005688171,9.494808214
9.730605667,-1.616039429,-9.211544495,-0.225431213,9.354942792
9.740657667,-1.855840759,-9.187294922,-0.348175964,9.37932617
9.750709667,-2.12722641,-9.197623444,-0.298479309,9.445128856
9.760760667,-2.496508484,-9.151070251,-0.223784637,9.488135798
9.770812667,-2.816992035,-9.067843323,-0.188607788,9.497199563
9.780864667,-3.119512939,-8.973988495,-0.077838135,9.501046746
9.790916667,-3.396287384,-8.859776001,-0.034578094,9.488498007
9.800967667,-3.606300659,-8.768914948,-0.000449066,9.481522768
9.811019667,-3.71033432,-8.723110199,0.071850586,9.479683266
9.821071667,-3.79460907,-8.717721405,0.15447876,9.509026668
9.831122667,-3.807931366,-8.76861557,0.113613739,9.560432437
9.841174667,-3.820654907,-8.87504425,0.015867004,9.662508273
9.851226667,-3.797453156,-9.015003204,0.041014709,9.782260242
9.861278667,-3.790118408,-9.152118073,0.06556366,9.906087086
9.871329667,-3.699107666,-9.271869049,0.016166382,9.982545494
9.881381667,-3.639681244,-9.362879791,0.003592529,10.0454373
9.891433667,-3.55705307,-9.388925629,0.044307861,10.04024473
9.901485667,-3.432362366,-9.381441193,0.118703156,9.990327357
9.911536667,-3.246448975,-9.405541077,0.133522339,9.950952824
9.921588667,-3.063978424,-9.449250183,0.156574402,9.934828048
9.931640667,-3.009791107,-9.525142365,0.204624481,9.991448881
9.941692667,-2.87252655,-9.569749603,0.272134094,9.995277546
9.951743667,-2.811453552,-9.660161591,0.343685303,10.0668323
9.961795667,-2.81759079,-9.690548401,0.489033051,10.10369732
9.971847667,-2.747985535,-9.643097076,0.705333252,10.05177799
9.981899667,-2.748135223,-9.597591705,0.899479523,10.02372571
9.991950667,-2.655926971,-9.506131897,1.014889526,9.922222154
10.00200267,-2.581381989,-9.453740845,1.02970871,9.853783484
10.01205467,-2.490820313,-9.434431,0.934356995,9.802331208
10.02210567,-2.351460114,-9.454189911,0.845741272,9.778872626
10.03215767,-2.197729797,-9.495803375,0.653241577,9.768675579
10.04220967,-2.047292633,-9.510173492,0.443527679,9.738147862
10.05226167,-1.890418854,-9.475146332,0.226179657,9.664535099
10.06231267,-1.83353714,-9.465715942,0.087418213,9.642057804
10.07236467,-1.784289551,-9.486223297,0.023650818,9.652599702
10.08241667,-1.753303986,-9.526938629,0.003442841,9.686931731
10.09246867,-1.765728149,-9.594448242,0.031883698,9.755626558
10.10251967,-1.821262665,-9.700278168,0.080831909,9.870102736
10.11257167,-1.964065704,-9.775122528,0.147742767,9.971579737
10.12262367,-2.151326294,-9.826016693,0.300125885,10.06324423
10.13267467,-2.291285248,-9.813592529,0.398321686,10.08539769
10.14272667,-2.379601593,-9.673483887,0.407003632,9.970177842
10.15277867,-2.528841248,-9.538165283,0.389340363,9.875384597
10.16283067,-2.773731995,-9.482181702,0.379760284,9.886838568
10.17288167,-3.128194885,-9.507628784,0.398770752,10.01696693
10.18293367,-3.469784546,-9.511820068,0.389490051,10.13241473
10.19298567,-3.757486267,-9.58531723,0.333805847,10.3008949
10.20303767,-3.997287598,-9.666298828,0.169896698,10.46157283
10.21308867,-4.126319275,-9.658964081,-0.089364166,10.50381282
10.22314067,-4.223317566,-9.564809875,-0.127385101,10.45649206
10.23319267,-4.139342194,-9.336684265,0.106578369,10.21367641
10.24324467,-3.907923431,-9.087003479,0.537382507,9.906274665
10.25329567,-3.684138794,-8.932824097,0.946032715,9.708923879
10.26334767,-3.532354431,-8.882528687,1.180894318,9.631788779
10.27339967,-3.573219452,-8.878337402,1.268761597,9.654145652
10.28345067,-3.476969604,-8.906628571,1.149609375,9.630106533
10.29350267,-3.310366058,-8.995393982,0.948427734,9.631985854
10.30355467,-3.257825317,-9.236243134,0.823138275,9.828487658
10.31360667,-3.141068115,-9.504934387,0.673150177,10.03310609
10.32365767,-2.873873749,-9.713750153,0.524808655,10.14354556
10.33370967,-2.680176544,-9.776469727,0.449814606,10.14716905
10.34376167,-2.589914246,-9.60986618,0.377664642,9.95991036
10.35381367,-2.565814362,-9.293274536,0.280666351,9.645057208
10.36386467,-2.54261261,-8.926237793,0.233813782,9.28424843
10.37391679,-2.427352295,-8.583600311,0.166304169,8.92176499
10.38396879,-2.323917389,-8.411907349,0.145946503,8.72823451
10.39401979,-2.288441162,-8.477021942,0.130528564,8.781452139
10.40407179,-2.426454163,-8.850345612,0.171094208,9.178538581
10.41412379,-2.703677673,-9.425898743,0.270936584,9.809732244
10.42417579,-2.941233673,-9.97151413,0.340990906,10.40183755
10.43422679,-3.084635468,-10.29184799,0.477806396,10.75478545
10.44427879,-3.151546326,-10.31909134,0.649050293,10.80912377
10.45433079,-3.143163757,-10.16625916,0.774938507,10.66924708
10.46438279,-3.028651886,-9.942025452,0.844094696,10.42732459
10.47443379,-2.881657562,-9.725276184,0.851579132,10.17890634
10.48448579,-2.803370361,-9.525292053,0.828976135,9.963798247
10.49453779,-2.81639328,-9.426497498,0.791703644,9.870041582
10.50458979,-2.855911102,-9.382339325,0.760718079,9.836829338
10.51464079,-2.833457794,-9.251062317,0.747246094,9.704072021
10.52469279,-2.803370361,-9.136700134,0.686173096,9.58170174
10.53474479,-2.771486664,-9.088500366,0.611179047,9.521319082
10.54479579,-2.774031372,-9.102271729,0.528401184,9.530257525
10.55484779,-2.741099854,-9.161249084,0.262554016,9.566140695
10.56489979,-2.635569305,-9.207951965,-0.324375458,9.58320533
10.57495179,-2.430196381,-9.183103638,-1.584904175,9.630533117
10.58500279,-2.402803345,-9.112450562,-2.255509644,9.690074453
10.59505479,-2.652334442,-9.079219666,-1.596579895,9.592506194
10.60510679,-2.838696899,-9.123976593,-0.762664032,9.585760553
10.61515879,-2.859054565,-9.142687683,-0.041912842,9.579388695
10.62520979,-2.827619934,-9.219028931,0.482297058,9.654974851
10.63526179,-2.82103363,-9.341025238,0.765657806,9.787707347
10.64531379,-2.807112579,-9.449399872,0.804277496,9.890293285
10.65536479,-2.766846313,-9.502689056,0.647254028,9.918441188
10.66541679,-2.681673431,-9.504335632,0.189655609,9.877233289
10.67546879,-2.637066193,-9.5233461,-0.509540405,9.894840598
10.68552079,-2.669099579,-9.632319489,-1.583407288,10.11992342
10.69557179,-2.70637207,-9.765692139,-2.536475372,10.44638215
10.70562379,-2.740501099,-9.883197784,-3.088227997,10.7109802
10.71567579,-2.732717285,-9.988129578,-3.540587311,10.94377607
10.72572779,-2.909050598,-10.04067032,-3.816613312,11.12852969
10.73577879,-3.187022552,-10.09455826,-4.028722229,11.32642141
10.74583079,-3.600762177,-9.993069305,-4.111500092,11.38996731
10.75588279,-4.136498108,-9.775122528,-3.8565802,11.29322132
10.76593379,-4.570595398,-9.584269409,-3.627556458,11.2208613
10.77598579,-4.947810974,-9.391470337,-3.147804108,11.07200159
10.78603779,-5.304519196,-9.19103714,-2.565215607,10.91757385
10.79608979,-5.693111115,-8.974437561,-2.015708313,10.8173529
10.80614079,-5.791306915,-8.753347321,-1.830543365,10.65416417
10.81619279,-5.666316833,-8.454868011,-1.935026093,10.36032169
10.82624479,-5.581593018,-8.177195435,-1.938319244,10.08849777
10.83629679,-5.385351105,-7.964936829,-1.989961853,9.818460846
10.84634779,-5.268294525,-7.8127034,-1.920206909,9.616675943
10.85639979,-4.984335022,-7.758665771,-1.932481384,9.422047254
10.86645179,-4.597838745,-7.727081451,-1.905537415,9.191244841
10.87650279,-4.316873016,-7.809709625,-1.72231842,9.088087687
10.88655479,-4.173321533,-7.934250641,-1.52233429,9.093208869
10.89660679,-4.090992737,-8.077502747,-1.257534943,9.141316444
10.90665879,-4.017345886,-8.26431427,-0.989143066,9.242097291
10.91670979,-3.838467865,-8.530311127,-0.936003571,9.400858799
10.92676179,-3.77006012,-8.99674118,-0.993334351,9.805173038
10.93681379,-3.527115326,-9.356892242,-1.103056183,10.06025387
10.94686579,-3.00365387,-8.994645538,-0.65054718,9.505198397
10.95691679,-2.411784668,-8.229287109,-0.345032501,8.582360925
10.96696879,-1.678309937,-7.428302765,-0.43873764,7.628164716
10.97702079,-1.096020813,-6.661597137,-0.842148743,6.803480914
10.98707179,-1.757195892,-7.004384308,-0.483494568,7.237603466
10.99712379,-2.549348602,-7.690707092,-0.199984131,8.104699102
11.00717579,-2.891537018,-8.302335205,-0.188158722,8.793472573
11.01722779,-2.827320557,-8.4948349,-0.553848267,8.970100858
11.02727879,-2.689756622,-8.458610229,-1.116827545,8.945958946
11.03733079,-2.612367554,-8.426726532,-1.457519073,8.941954268
11.04738279,-2.648442535,-8.521329803,-1.601220245,9.065937114
11.05743479,-2.885848846,-8.748557281,-1.796414337,9.385759561
11.06748579,-3.228785706,-9.015152893,-2.110012207,9.805620344
11.07753779,-3.539689178,-9.18400177,-2.422711945,10.13631201
11.08758979,-3.847000122,-9.362430725,-2.638413391,10.4601981
11.09764079,-3.945944366,-9.604178009,-2.712958374,10.73176851
11.10769279,-3.796854401,-9.897118835,-2.608625336,10.91668405
11.11774479,-3.658542023,-10.269245,-2.599644012,11.20716162
11.12779679,-3.81212265,-10.76471466,-2.573747864,11.70621796
11.13784779,-4.128564606,-11.18429214,-2.490371246,12.17930152
11.14789979,-4.325255585,-11.3136232,-2.471510468,12.3618069
11.15795179,-4.132157135,-10.93640762,-2.57180191,11.97054299
11.16800379,-3.493734741,-10.10009674,-2.856509857,11.06244933
11.17805479,-2.774929504,-9.307944031,-3.110232239,10.19860777
11.18810679,-2.311044159,-8.839717712,-3.002007294,9.617358376
11.19815879,-2.097138977,-8.470585327,-2.543660431,9.08950032
11.20820979,-2.102527771,-8.148155823,-1.790875854,8.603505255
11.21826179,-2.307301941,-7.922574921,-0.947080536,8.305889306
11.22831379,-2.606080627,-7.832162933,-0.316292267,8.260416046
11.23836579,-2.832559662,-7.759414215,0.106877747,8.260951885
11.24841679,-3.129093018,-7.807015228,0.691711578,8.439145383
11.25846879,-3.575315094,-8.072263641,1.434616699,8.944408499
11.26852079,-4.095782776,-8.479716339,2.004781036,9.628092892
11.27857179,-4.686005402,-9.09044632,2.22661972,10.46674239
11.28862379,-5.194647675,-9.711804199,2.082020416,11.20884982
11.29867579,-5.609584808,-10.18347336,1.715732117,11.75220439
11.30872779,-5.985602875,-10.36818924,1.242865448,12.03625791
11.31877879,-6.205046539,-10.14425491,0.865949249,11.92301885
11.32883079,-5.882167969,-9.461824036,0.745898895,11.16612642
11.33888279,-5.166955261,-8.703201599,0.727636871,10.14754158
11.34893479,-4.642745361,-8.196654968,0.509989471,9.433998432
11.35898579,-4.428241425,-8.00924469,-0.067659302,9.152152774
11.36903817,-4.336033173,-8.329129486,-0.929716644,9.43609849
11.37909017,-4.163741455,-8.919801178,-1.570983124,9.968329044
11.38914117,-3.82963623,-9.317973175,-1.640139313,10.20689937
11.39919317,-3.456911316,-9.55837326,-1.825903015,10.32698683
11.40924517,-3.190166016,-9.689650269,-2.064506836,10.40810598
11.41929717,-3.312611389,-9.55493042,-1.203946381,10.18428085
11.42934817,-3.205134888,-9.075327759,-0.095052338,9.625149273
11.43940017,-2.782713318,-8.592431946,0.55818924,9.049030632
11.44945217,-2.387385406,-8.393495636,0.768202515,8.760166275
11.45950417,-2.260898438,-8.490643616,0.778381348,8.820916521
11.46955517,-2.24188797,-8.741222534,0.803079987,9.059799696
11.47960717,-2.277364197,-8.982820129,0.894839172,9.310111831
11.48965917,-2.35415451,-9.153914337,1.046623535,9.509553721
11.49971017,-2.393672333,-9.270372162,1.07296875,9.634351519
11.50976217,-2.436782684,-9.387129364,0.966989136,9.746341649
11.51981417,-2.629282379,-9.428742828,0.646655273,9.809815503
11.52986617,-2.936593323,-9.536069641,-0.139958954,9.978967534
11.53991717,-3.282224579,-9.711055756,-1.944606171,10.43355621
11.54996917,-3.50556015,-9.796078949,-2.186054077,10.63160135
11.56002117,-3.563938751,-9.76314743,-0.561332703,10.40844857
11.57007317,-3.484304352,-9.723779297,0.920435944,10.37012357
11.58012417,-3.451073456,-9.730215912,1.388811951,10.41709212
11.59017617,-3.457061005,-9.702074432,1.302142181,10.3815747
11.60022817,-3.492387543,-9.615105286,1.185684357,10.29819731
11.61027917,-3.472179565,-9.524992676,0.960103455,10.18348246
11.62033117,-3.40616684,-9.503287811,0.522263947,10.10876903
11.63038317,-3.350632324,-9.546398163,0.058378601,10.1175028
11.64043517,-3.406915283,-9.598340149,-0.097597046,10.18551572
11.65048617,-3.549568634,-9.654623108,0.03158432,10.28650487
11.66053817,-3.638483734,-9.716145172,0.231568451,10.37765218
11.67059017,-3.60615097,-9.691296844,0.337997131,10.34600413
11.68064117,-3.498075714,-9.551487579,0.309406586,10.17659968
11.69069317,-3.229534149,-9.236243134,0.165705414,9.785986732
11.70074517,-2.867287445,-8.858578491,-0.036074982,9.311125151
11.71079717,-2.551893311,-8.618328094,-0.204474792,8.990525488
11.72084817,-2.339634705,-8.580756226,-0.29608429,8.898928804
11.73090017,-2.308349762,-8.730894012,-0.198786621,9.033078379
11.74095217,-2.460882568,-8.909921722,0.054337006,9.243678955
11.75100417,-2.61401413,-9.124126282,0.292940826,9.495712959
11.76105517,-2.79768219,-9.33848053,0.500559082,9.761393529
11.77110717,-3.013683014,-9.517807617,0.634081421,10.00364965
11.78115917,-3.239563293,-9.629475403,0.772393799,10.18911964
11.79121017,-3.466341705,-9.640402679,0.907862091,10.28479957
11.80126217,-3.669618988,-9.631571045,0.980610809,10.35349515
11.81131417,-3.841012573,-9.632918243,0.837658081,10.40423772
11.82136617,-4.055815887,-9.530082092,0.583486633,10.37364757
11.83141717,-4.179309082,-9.304201813,0.292641449,10.20394212
11.84146917,-4.284989319,-9.062604218,0.105380859,10.02512014
11.85152117,-4.37375473,-8.862320709,0.078885956,9.88315141
11.86157217,-4.484075317,-8.723708954,0.069305878,9.808915978
11.87162417,-4.636907501,-8.587492218,-0.059276733,9.759582343
11.88167617,-4.737198944,-8.435857544,-0.260608063,9.678463871
11.89172817,-4.779860229,-8.304879913,-0.331261139,9.58790009
11.90177917,-4.684059448,-8.319699097,-0.290396118,9.552074952
11.91183117,-4.548890533,-8.548273773,-0.205821991,9.685440221
11.92188317,-4.442461853,-8.816366272,-0.146694946,9.873464486
11.93193417,-4.244423676,-9.04598877,-0.137264557,9.993192018
11.94198617,-3.939507751,-9.168883209,-0.228574677,9.982003156
11.95203817,-3.60615097,-9.179511108,-0.401914215,9.870627338
11.96209017,-3.280727692,-9.157506866,-0.516426086,9.741139671
11.97214117,-3.004701691,-9.13370636,-0.543819122,9.630605555
11.98219317,-2.79648468,-9.133406982,-0.474363556,9.563705896
11.99224517,-2.751128998,-9.137298889,-0.245489502,9.545638106
12.00229717,-2.743195496,-9.184750214,0.010627899,9.585659652
12.01234817,-2.729424133,-9.27411438,0.190553741,9.669294926
12.02240017,-2.766546936,-9.353150024,0.282761993,9.757825151
12.03245217,-3.014281769,-9.492659912,0.348475342,9.96583774
12.04250317,-3.127147064,-9.605674896,0.257015533,10.10515195
12.05255517,-3.261866913,-9.714648285,0.078137512,10.24793992
12.06260717,-3.463647308,-9.744286652,0.046104126,10.34166817
12.07265917,-3.614234161,-9.624086609,0.144898682,10.28137769
12.08271017,-3.840862885,-9.448352051,0.406404877,10.20728902
12.09276217,-3.966152344,-9.170230408,0.582139435,10.00811553
12.10281417,-3.978127441,-8.897048492,0.504750366,9.75898267
12.11286517,-4.023632813,-8.701105957,0.46568161,9.597693746
12.12291717,-4.143982544,-8.616980896,0.548010406,9.577330865
12.13296917,-4.157903595,-8.575966187,0.53004776,9.545486314
12.14302117,-4.096381531,-8.582253113,0.398920441,9.518116812
12.15307217,-4.101770325,-8.6434758,0.288899231,9.571711261
12.16312417,-4.114793243,-8.737929382,0.234113159,9.661146014
12.17317617,-4.120481415,-8.754694519,0.113613739,9.676567123
12.18322817,-4.098028107,-8.713081055,0.0199086,9.628707711
12.19327917,-4.051774292,-8.606203308,-0.024399261,9.512318625
12.20333117,-3.989054718,-8.489595795,-0.09131012,9.38051874
12.21338317,-3.862118683,-8.356522522,-0.18950592,9.207787024
12.22343417,-3.707041168,-8.328231354,-0.284857635,9.120456983
12.23348617,-3.625161438,-8.431815948,-0.327069855,9.183914761
12.24353817,-3.604055328,-8.603808289,-0.340392151,9.334377253
12.25359017,-3.605552216,-8.859776001,-0.39667511,9.573556743
12.26364117,-3.566483459,-9.219028931,-0.487236786,9.896852953
12.27369317,-3.435805206,-9.679621124,-0.930914154,10.3134099
12.28374517,-3.123554535,-10.19634659,-2.28754303,10.90664613
12.29379617,-3.041974182,-10.55919205,-3.223696289,11.45174054
12.30384817,-3.425177307,-10.51922516,-2.648592224,11.37545508
12.31390017,-3.859424286,-9.989776154,-1.526076508,10.81756409
12.32395217,-4.186045074,-9.512718201,-0.458346863,10.40311794
12.33400317,-4.365072784,-9.296268311,0.478405151,10.28121279
12.34405517,-4.402045898,-9.167985077,1.220861206,10.2430689
12.35410717,-4.377646637,-9.148974609,1.785936127,10.29840251
12.36415817,-4.322860565,-9.07398056,2.122735748,10.27279192
12.37420992,-4.227658539,-8.874146118,2.266885986,10.08773206
12.38426192,-4.209695892,-8.70080658,2.2348526,9.920692556
12.39431392,-4.213288422,-8.634494476,2.030826874,9.819905905
12.40436492,-4.087250519,-8.54977066,1.46260849,9.588713091
12.41441692,-3.807182922,-8.487649841,0.638272705,9.324281939
12.42446892,-3.309617615,-8.562045135,-0.697998505,9.205943057
12.43451992,-2.894381104,-8.784931641,-1.979184265,9.458839054
12.44457192,-2.891387329,-9.20151535,-2.567460938,9.980974957
12.45462392,-2.938539276,-9.733658752,-2.856509857,10.5611919
12.46467592,-2.923869781,-10.28151947,-3.006348267,11.10390864
12.47472692,-2.579585724,-10.80363373,-3.15334259,11.54626926
12.48477892,-2.639910278,-11.11139374,-2.983146515,11.80387056
12.49483092,-3.525917816,-11.00331848,-2.451601868,11.81166651
12.50488292,-4.637206879,-10.53913376,-1.850451965,11.66195526
12.51493392,-5.376968536,-9.984986115,-1.430724792,11.43060417
12.52498592,-5.845194855,-9.499844971,-1.325643311,11.23257261
12.53503792,-5.896538086,-8.990753632,-1.740281067,10.89180382
12.54508892,-5.459447021,-8.43750412,-2.028282166,10.25236393
12.55514092,-5.154381409,-8.040080566,-1.982477417,9.754012504
12.56519292,-4.853357391,-7.679779816,-2.077679443,9.319380229
12.57524492,-4.571044464,-7.663014679,-2.630928955,9.302581826
12.58529592,-4.547094269,-7.861501923,-2.344574432,9.379568649
12.59534792,-4.756957855,-8.160729675,-1.356329498,9.542839545
12.60539992,-5.0735495,-8.457712097,-0.797840881,9.894965817
12.61545092,-5.235063629,-8.775950317,-0.473465424,10.22972945
12.62550292,-4.860392761,-9.087153168,-0.708327026,10.3296417
12.63555492,-4.185596008,-9.359287262,-0.802481232,10.28394127
12.64560692,-3.823948059,-9.64624054,-0.486638031,10.38794262
12.65565792,-3.655548248,-9.863588562,-0.10298584,10.51969669
12.66570992,-3.429218903,-9.959239655,0.242495728,10.53588159
12.67576192,-3.096909943,-10.14036301,0.510588226,10.61501359
12.68581292,-2.783910828,-10.30008087,1.141526184,10.73055951
12.69586492,-2.463576965,-10.2717897,2.383643188,10.82869475
12.70591692,-2.547702026,-10.02884491,3.656745758,10.97452985
12.71596892,-2.924318848,-9.559720459,3.895499268,10.72915703
12.72601992,-3.29494812,-8.81187561,2.818937988,9.82101045
12.73607192,-3.622766418,-8.210875397,-0.133672028,8.975565693
12.74612392,-4.149521027,-7.852819977,-4.921465759,10.15411895
12.75617492,-5.075944519,-7.743397522,-9.758207703,13.45169266
12.76622692,-5.461692352,-8.519084473,-7.897876282,12.83671817
12.77627892,-5.359604645,-9.547146606,-5.301076355,12.16448851
12.78633092,-5.570965118,-10.5744603,-2.969225464,12.31548467
12.79638192,-5.17294281,-11.13788864,-1.832639008,12.41654003
12.80643392,-3.988455963,-11.38682098,-2.193987579,12.26299534
12.81648592,-2.384241943,-11.17441269,-1.843266907,11.57366586
12.82653692,-0.696800995,-10.62280975,-0.842298431,10.67890843
12.83658892,0.665965118,-10.08018814,0.334554291,10.10770147
12.84664092,1.424288177,-9.739646301,1.59134079,9.971041691
12.85669292,1.393751678,-9.384884033,1.924398193,9.681007203
12.86674392,0.43289978,-8.933123474,1.484612732,9.065989863
12.87679592,-0.919388123,-8.275540924,0.633632355,8.350529448
12.88684792,-1.777852936,-7.759563904,0.023052063,7.960661055
12.89689992,-1.985770569,-7.308252411,-0.269888763,7.578039192
12.90695092,-1.992805939,-6.695576477,-0.355959778,6.994907235
12.91700292,-2.28874054,-6.035898285,-0.187410278,6.457981416
12.92705492,-3.074606323,-5.643564148,-0.068707123,6.427109848
12.93710592,-3.50795517,-5.642216949,-0.552351379,6.666742355
12.94715792,-3.454665985,-5.708379364,-1.276246033,6.793314064
12.95720992,-3.21306839,-5.634283447,-0.832418976,6.539256823
12.96726092,-3.12415329,-5.776637421,-0.523461456,6.588162533
12.97731292,-3.82035553,-6.717580719,-3.540437622,8.50033562
12.98736492,-5.793252869,-9.07757309,-10.47027695,15.0196808
12.99741692,-10.24574387,-10.77698914,-4.21583313,15.45613183
13.00746792,-9.037606201,-9.708810425,11.2923674,17.42001398
13.01751992,-7.548053741,-9.461973724,7.297923889,14.13370989
13.02757192,-6.715485077,-9.895921326,-2.462828522,12.21034492
13.03762392,-5.423671417,-12.34827164,-26.07757141,29.35874239
13.04767492,2.59171051,-12.10143494,-22.64251465,25.80397567
13.05772692,-0.204624481,-10.6328389,-2.903512115,11.02404267
13.06777892,-2.918780365,-8.975635071,6.507717133,11.46436592
13.07782992,-3.946393433,-8.537047119,9.415869598,13.30841068
13.08788192,-5.829926605,-9.659263458,8.834777985,14.32978426
13.09793392,-6.066734161,-10.94613739,6.043831787,13.89788077
13.10798592,-5.552553406,-11.60836029,4.197271729,13.53521215
13.11803692,-4.984634399,-11.46166534,2.575544128,12.76126091
13.12808892,-4.917424164,-10.91590027,1.307530975,12.04356992
13.13814092,-5.260061646,-10.33031799,0.721649323,11.61483948
13.14819192,-5.665867767,-9.878258057,0.520018616,11.39966926
13.15824392,-5.854625244,-9.506131897,0.531544647,11.1770175
13.16829592,-5.771548004,-9.099577332,0.607436829,10.79268518
13.17834792,-5.536387024,-8.602610779,0.501157837,10.24244369
13.18839892,-5.15303421,-8.199049988,0.247285767,9.687070379
13.19845092,-4.878205719,-8.126001892,0.088316345,9.478217003
13.20850292,-4.83359848,-8.265062714,0.073946228,9.574988458
13.21855392,-4.910987549,-8.515791321,0.083825684,9.830743984
13.22860592,-4.832850037,-8.676407318,0.026794281,9.93162632
13.23865792,-4.548890533,-8.770561523,0.024998016,9.880069809
13.24870992,-4.277355194,-8.852291565,0.19309845,9.833418552
13.25876092,-4.046086121,-8.865015106,0.296982422,9.749230959
13.26881292,-3.895798645,-8.798104248,0.219293976,9.624550654
13.27886492,-3.679199066,-8.585546265,0.015717316,9.340682923
13.28891592,-3.391048279,-8.346343689,-0.23875351,9.012084367
13.29896792,-3.019371185,-8.258925476,-0.625399475,8.815757306
13.30901992,-2.800077209,-8.239016876,-0.857267303,8.743954408
13.31907192,-2.723586273,-8.224796448,-0.650397491,8.688395461
13.32912292,-2.727328491,-8.08992691,-0.231867828,8.540433291
13.33917492,-2.710413666,-8.132737885,0.016465759,8.572516483
13.34922692,-2.935844879,-8.351882172,0.413739624,8.862522296
13.35927792,-3.265609131,-8.693022766,0.752784576,9.316626666
13.36932992,-3.546275482,-9.014254761,0.855171661,9.724411409
13.37938192,-3.692671051,-9.294472046,0.852776642,10.03744281
13.38943392,-3.741020508,-9.548793182,0.776136017,10.28479814
13.39948492,-3.795956268,-9.77257782,0.677042084,10.50575781
13.40953692,-3.852388916,-9.930649109,0.621507568,10.66981554
13.41958892,-3.74431366,-9.917177124,0.591120758,10.61695392
13.42963992,-3.532803497,-9.653425598,0.589025116,10.29642059
13.43969192,-3.236569519,-9.263486481,0.660875702,9.834852349
13.44974392,-2.87252655,-8.830886078,0.897383881,9.32959032
13.45979592,-2.420017548,-8.479267273,1.22744751,8.902869527
13.46984692,-2.06525528,-8.223449249,1.611997833,8.630697187
13.47989892,-1.582359467,-8.056396637,2.034120026,8.458547897
13.48995092,-1.042731628,-8.052205353,2.299817505,8.438866088
13.50000192,-1.44853775,-8.285869446,2.368824005,8.738719658
13.51005392,-2.383942566,-8.457712097,2.05821991,9.025095305
13.52010592,-2.376757507,-8.499026184,2.12483139,9.077297547
13.53015692,-2.081421661,-8.674760742,2.405198364,9.239522133
13.54020892,-1.73294632,-8.772058411,2.877915344,9.393322545
13.55026092,-1.408570862,-8.968450012,3.29375061,9.65743033
13.56031292,-2.23021225,-9.313033447,2.888842621,10.00259218
13.57036392,-3.515289917,-9.441166992,2.071691895,10.28517402
13.58041592,-4.026626587,-9.404044189,1.740281067,10.37681777
13.59046792,-4.129462738,-9.224567413,1.448837128,10.21000664
13.60051992,-4.115841064,-8.991352386,1.18298996,9.959117965
13.61057092,-4.251459045,-8.833580475,1.01444046,9.855766711
13.62062292,-4.66280365,-8.700507202,0.889001312,9.91114962
13.63067492,-5.377866669,-8.504864044,0.204624481,10.06459306
13.64072592,-6.264472961,-8.331973572,-1.36905304,10.51378673
13.65077792,-7.149582367,-8.490493927,-1.994901581,11.2776171
13.66082992,-7.3973172,-8.817863159,-1.094374237,11.56168964
13.67088092,-9.177565155,-9.191935272,-5.089416504,13.9506823
13.68093292,-10.91440338,-9.321565704,-7.882009277,16.37503767
13.69098492,-9.836494904,-8.680598602,-2.855611725,13.42624081
13.70103692,-8.892108765,-8.063731384,0.671503601,12.02265691
13.71108792,-8.797954559,-7.840246124,0.290096741,11.78802867
13.72113992,-8.058492279,-7.982151031,-2.59874588,11.63647339
13.73119192,-6.678362274,-8.61772934,-3.79805191,11.54517128
13.74124292,-5.654940491,-9.303004303,-4.658013611,11.84150885
13.75129492,-4.867128754,-9.878407745,-5.321733398,12.23081061
13.76134692,-4.842879181,-10.54661819,-4.127067719,12.31735857
13.77139892,-4.96233078,-11.01244949,-2.773582306,12.39320497
13.78144992,-4.276457062,-11.17306549,-1.862427063,12.10760554
13.79150192,-2.930456085,-11.12396759,-1.482666779,11.59864339
13.80155392,-1.320404205,-11.47349075,-1.788780212,11.68692397
13.81160492,-0.416134644,-12.40305771,-2.106419678,12.58753401
13.82165692,-0.513282623,-13.59083771,-1.75390274,13.71315075
13.83170892,-0.737516327,-15.06572067,-0.793948975,15.10464249
13.84176092,-1.582359467,-16.23538834,-0.196990356,16.31350671
13.85181192,-1.595382385,-16.18464386,-0.287102966,16.26561926
13.86186392,-2.381547546,-15.26211227,0.419876862,15.4525123
13.87191592,-3.434308319,-14.02538406,0.949774933,14.47093446
13.88196692,-3.425177307,-13.14880692,1.095571747,13.63169983
13.89201892,-2.92282196,-12.78371613,0.421673126,13.12036945
13.90207092,-2.914289703,-12.56891281,0.096100159,12.90270859
13.91212292,-3.582649841,-11.95713501,-0.511186981,12.49278871
13.92217392,-4.336631927,-10.83222427,-1.614093475,11.77916622
13.93222592,-5.083578644,-9.26947403,-1.96107193,10.75228923
13.94227792,-5.470374298,-7.716902618,-2.355501709,9.748023866
13.95232892,-5.573659515,-6.729406128,-2.670446777,9.136841534
13.96238092,-5.420827332,-6.201753387,-2.953508148,8.750447098
13.97243292,-5.153483276,-6.09263031,-2.893033905,8.488119883
13.98248492,-4.332440643,-6.544989624,-2.56012619,8.255978271
13.99253592,-2.936144257,-7.10587326,-2.269281006,8.016483903
14.00258792,-2.048639832,-7.207362213,-1.755249939,7.695706438
14.01263992,-1.467548218,-7.053931274,-1.495240631,7.358490928
14.02269092,-0.901275787,-6.776109009,-1.285077667,6.955528445
14.03274292,-0.365839233,-6.459517365,-1.220262451,6.583938288
14.04279492,-0.144599304,-6.266718292,-1.34555191,6.41117595
14.05284692,-0.223934326,-6.241720276,-1.651515656,6.46039647
14.06289792,-0.433049469,-6.297703857,-1.787582703,6.560797028
14.07294992,-0.50310379,-6.287824402,-1.770518188,6.551685568
14.08300192,-0.717907104,-6.246061249,-1.581760712,6.483104093
14.09305292,-1.11622879,-6.289321289,-1.267713776,6.512190661
14.10310492,-1.356628876,-6.358327789,-0.969683533,6.573359897
14.11315692,-1.493294678,-6.453829193,-0.681383057,6.659288484
14.12320792,-1.574725342,-6.555467834,-0.547112274,6.764114892
14.13325992,-1.651665344,-6.674919434,-0.548309784,6.89805708
14.14331192,-1.576970673,-6.887327728,-0.563128967,7.087964022
14.15336392,-1.474583588,-7.157964935,-0.4552034,7.322435995
14.16341492,-1.707948303,-7.527995453,-0.248333588,7.723307097
14.17346692,-2.37181778,-8.052654419,-0.15328125,8.396085869
14.18351892,-3.545976105,-8.773555298,-0.577499084,9.480649993
14.19356992,-5.115312653,-9.702074432,-1.837429047,11.12082809
14.20362192,-6.884184265,-10.63613205,-3.67171463,13.19093576
14.21367392,-8.875493317,-11.33398087,-5.810916138,15.52418276
14.22372592,-11.46151566,-11.44115799,-5.640420685,17.14878371
14.23377692,-13.28786774,-10.46144531,-3.523672485,17.27499739
14.24382892,-13.63724121,-8.694070587,-1.499431915,16.24221374
14.25388092,-12.76754974,-7.227121124,0.39787262,14.67650874
14.26393192,-11.71598648,-6.772217102,1.399140472,13.60458958
14.27398392,-11.23818008,-7.178172913,0.75353302,13.35629702
14.28403592,-12.10876968,-8.500523071,-0.889899445,14.82137365
14.29408792,-12.82428177,-10.49377808,-2.865790558,16.81649002
14.30413892,-11.79367493,-11.78439423,-3.016676788,16.94293524
14.31419092,-9.595945129,-11.41256744,-0.625249786,14.92379965
14.32424292,-6.612948303,-9.842931519,2.539918213,12.12705944
14.33429392,-4.066892853,-8.624165955,4.395609283,10.49939221
14.34434592,-2.344275055,-7.739056549,4.240531769,9.130757443
14.35439792,-1.073866882,-6.956483917,1.785636749,7.261842547
14.36444992,0.274529114,-6.278094635,-2.346670074,6.70795788
14.37450092,1.861977997,-5.923332367,-7.731721802,9.916266959
14.38455292,2.04175415,-6.376589813,-8.499924316,10.82027592
14.39460492,0.562230835,-7.694748688,-4.475393372,8.919327705
14.40465592,-1.201401672,-9.081315308,-0.779728546,9.193564613
14.41470792,-2.349813538,-10.16805542,0.853824463,10.47091166
14.42475992,-2.861748962,-10.81875229,0.780776367,11.21804885
14.43481092,-3.175795898,-10.94898148,0.715212708,11.42267062
14.44486292,-3.578009491,-10.70528824,1.097966766,11.34067367
14.45491492,-3.999682617,-10.33705399,1.404529266,11.17250413
14.46496692,-4.12572052,-9.77602066,1.602268066,10.73123538
14.47501792,-3.820205841,-9.101822662,1.802551575,10.03425835
14.48506992,-3.586691437,-8.578361206,1.851350098,9.480513363
14.49512192,-3.517834625,-8.257129211,1.788780212,9.151780041
14.50517292,-3.451672211,-8.193212128,1.638043671,9.040240765
14.51522492,-3.47861618,-8.312214661,1.448837128,9.126489584
14.52527692,-3.682641907,-8.540340271,1.234931946,9.382127705
14.53532892,-3.896247711,-8.775351563,1.122815094,9.666863763
14.54537992,-4.054618378,-9.041647797,1.100361786,9.97006124
14.55543192,-4.24157959,-9.353599091,1.010398865,10.31996702
14.56548392,-4.195774841,-9.548643494,0.722697144,10.45482713
14.57553492,-4.00402359,-9.504036255,0.268691254,10.31654521
14.58558692,-3.76182724,-9.206305389,-0.197589111,9.947182745
14.59563892,-3.419189758,-8.697363739,-0.58977356,9.363910906
14.60568992,-3.108136597,-8.184380493,-0.878822479,8.798688886
14.61574192,-2.97551239,-7.871680756,-1.077160034,8.483943991
14.62579392,-3.030597839,-7.729177094,-1.151555328,8.381573926
14.63584592,-3.096460876,-7.623646545,-0.999321899,8.288950529
14.64589692,-3.181334381,-7.600295105,-0.701591034,8.269075166
14.65594892,-3.287014618,-7.717950439,-0.461640015,8.401448422
14.66600092,-3.486998749,-8.000263367,-0.213456116,8.729773063
14.67605192,-3.816912689,-8.408015442,-0.012723541,9.233834958
14.68610392,-4.166136475,-8.824599152,0.174986115,9.760167184
14.69615592,-4.450694733,-9.164691925,0.344134369,10.1940517
14.70620792,-4.653073883,-9.408834229,0.506247253,10.50873657
14.71625892,-4.782554626,-9.508975983,0.61192749,10.66151529
14.72631092,-4.802463226,-9.47065567,0.672252045,10.63996685
14.73636292,-4.684807892,-9.265133057,0.754281464,10.4095656
14.74641392,-4.411027222,-8.823251953,0.742905121,9.892362923
14.75646592,-4.010011139,-8.275091858,0.712817688,9.223092955
14.76651792,-3.685635681,-7.870632935,0.659528503,8.715833352
14.77656992,-3.436104584,-7.602839813,0.590671692,8.364142573
14.78662092,-3.236719208,-7.437583466,0.484542389,8.125809521
14.79667292,-3.244802399,-7.526648254,0.387394409,8.205440328
14.80672492,-3.576811981,-7.890691223,0.380209351,8.671859724
14.81677592,-4.105961609,-8.421786804,0.435594177,9.379507236
14.82682792,-4.61714859,-8.904083862,0.54052597,10.04454772
14.83687992,-4.9647258,-9.182055817,0.634680176,10.45760346
14.84693092,-5.20332962,-9.297016754,0.72898407,10.6789783
14.85698292,-5.431604919,-9.428742828,0.830023956,10.91294933
14.86703492,-5.695506134,-9.605525208,0.909358978,11.20409918
14.87708692,-6.096073151,-9.783804474,0.93016571,11.56503982
14.88713792,-6.560407562,-10.0210611,0.904868317,12.01163601
14.89718992,-6.927893372,-10.17179764,0.760718079,12.33044467
14.90724192,-7.052733765,-10.16281631,0.42122406,12.37745203
14.91729292,-6.945107574,-9.975256348,-0.003293152,12.15484551
14.92734492,-6.443800049,-9.592651978,-0.717757416,11.578286
14.93739692,-5.713618469,-9.22142395,-2.039808197,11.03815715
14.94744892,-4.442461853,-9.047036591,-7.549251251,12.59267775
14.95749992,-2.405946808,-9.375453644,-21.64977905,23.71498775
14.96755192,-3.168760529,-10.57565781,-15.32004181,18.88357123
14.97760392,-3.895948334,-11.78199921,-5.816604309,13.70499195
14.98765492,-5.143454132,-12.94268555,-1.065634003,13.96795638
14.99770692,-4.3807901,-13.19057007,0.263901215,13.90151447
15.00775892,-1.440304871,-12.62669266,1.9282901,12.85403237
15.01780992,1.456620941,-12.4283551,-0.216300201,12.51529228
15.02786192,1.666634216,-13.85294266,-5.936954041,15.16341364
15.03791392,0.786015472,-15.33037033,-4.921765137,16.12023098
15.04796592,0.261206818,-15.90023529,-2.732717285,16.13547195
15.05801692,-0.069904633,-16.04154144,0.083526306,16.04191121
15.06806892,-0.676143951,-16.26083542,2.30625412,16.43747995
15.07812092,-2.233804779,-16.30678986,3.162473602,16.76014673
15.08817192,-4.310286713,-14.68775665,3.625161438,15.73056142
15.09822392,-5.315446472,-12.25636276,3.848946075,13.90276179
15.10827592,-6.069727936,-10.08303223,2.528691559,12.03758352
15.11832792,-6.565946045,-8.40472229,0.156125336,10.66655424
15.12837892,-6.687343597,-7.105124817,-1.070124664,9.815728697
15.13843092,-6.706803131,-6.1710672,-0.365539856,9.12123336
15.14848292,-6.626270599,-5.560037842,0.477806396,8.663127715
15.15853392,-6.294859772,-5.131029968,0.425714722,8.132278961
15.16858592,-5.612428894,-4.706961823,-0.062420197,7.325212896
15.17863792,-4.364024963,-4.308041382,-0.579744415,6.159548524
15.18868892,-2.841241608,-4.24157959,-0.841549988,5.174152846
15.19874092,-1.346899109,-4.448898468,-1.159638519,4.790782429
15.20879292,-0.712667999,-4.968617706,-1.1771521,5.15565172
15.21884492,-0.545016632,-5.726641388,-1.031804352,5.844320742
15.22889592,-0.324974213,-6.303841095,-0.845890961,6.368638183
15.23894792,0.126786346,-6.638545074,-0.558488617,6.66320231
15.24899992,0.833915863,-6.738088074,-0.451012115,6.804458721
15.25905092,1.368154907,-6.538253632,-0.352516937,6.689161128
15.26910292,1.681154022,-6.25174942,-0.448467407,6.489358418
15.27915492,1.934726715,-5.956712952,-0.468525696,6.28053445
15.28920592,2.259850616,-5.733826447,-0.410895538,6.176773079
15.29925792,2.70412674,-5.750142517,-0.277223511,6.360290344
15.30930992,2.929707642,-5.983357544,-0.245489502,6.666634793
15.31936192,2.647544403,-6.522835693,-0.473016357,7.055538344
15.32941292,1.836830292,-7.328759766,-0.933458862,7.612884517
15.33946492,0.596359863,-8.438402252,-1.514251099,8.593906798
15.34951692,-1.025966492,-9.933193817,-2.314786377,10.25081375
15.35956792,-3.752696228,-12.09724365,-4.814588013,13.55013988
15.36961954,-8.623118134,-15.00779114,-8.883426819,19.45526235
15.37967154,-13.83498001,-16.31636993,-7.617060242,22.70793268
15.38972354,-16.58012146,-15.40760971,-3.962110748,22.97810232
15.39977454,-17.6412648,-13.49339035,-0.44816803,22.21455967
15.40982654,-17.75757294,-11.75295959,1.057999878,21.32094791
15.41987854,-17.69754776,-11.14028366,0.743204498,20.92513966
15.42992954,-18.39165436,-11.36421799,-1.334624634,21.66055455
15.43998154,-18.30258957,-11.93393326,-2.882256317,22.03885091
15.45003354,-15.02186188,-11.0495723,-2.358645172,18.79661111
15.46008454,-10.25652145,-9.762698364,0.494870911,14.16867703
15.47013654,-6.154451752,-8.949439545,3.284320221,11.34709231
15.48018854,-3.416495361,-8.038733368,3.203638,9.303599903
15.49024054,-1.02387085,-6.830446014,0.589324493,6.931854559
15.50029154,1.637145538,-5.481451263,-2.980302429,6.450484946
15.51034354,4.257596283,-4.413871307,-7.288194122,9.525080556
15.52039554,5.308111725,-3.917653198,-7.736362152,10.16736721
15.53044654,3.462898865,-4.734654236,-3.116519165,6.642387446
15.54049854,1.06713089,-6.404581604,1.037642212,6.575266931
15.55055054,-0.02335144,-8.282426605,1.953737183,8.509772308
15.56060154,-0.523910522,-10.1896106,1.683998108,10.3411071
15.57065354,-1.092428284,-12.09709396,1.761686554,12.27341116
15.58070554,-1.666783905,-13.48650467,1.757046204,13.70223296
15.59075754,-1.994003448,-13.86072647,1.591789856,14.09360078
15.60080854,-2.341580658,-12.84209473,1.547481995,13.14523098
15.61086054,-2.389031982,-11.39310791,1.479373627,11.73451865
15.62091254,-1.971699829,-9.793833618,1.185684357,10.06044853
15.63096354,-1.481768646,-8.528065796,0.790356445,8.691847206
15.64101554,-1.326391754,-7.890092468,0.762514343,8.037058067
15.65106754,-1.5328125,-7.85012558,1.102158051,8.073954307
15.66111954,-1.895208893,-8.375682678,1.056353302,8.652153453
15.67117054,-2.443518677,-9.111552429,1.100960541,9.497541014
15.68122254,-2.936144257,-9.631870422,1.337917786,10.15794738
15.69127454,-3.263513489,-9.913883972,1.528621216,10.54856855
15.70132554,-3.575015717,-10.11371841,1.669927368,10.85618234
15.71137754,-3.832330627,-10.16521133,1.736538849,11.00153838
15.72142954,-3.942202148,-9.970615997,1.740580444,10.86203302
15.73148054,-4.028273163,-9.694290619,1.586550751,10.6171276
15.74153254,-3.962559814,-9.297166443,1.274300079,10.18641374
15.75158454,-3.53834198,-8.63524292,0.813857574,9.367478231
15.76163654,-3.396437073,-8.139024811,0.543669434,8.836010758
15.77168754,-3.507057037,-7.79399231,0.586480408,8.566780285
15.78173954,-3.813170471,-7.628586273,0.865350494,8.572305935
15.79179154,-4.228406982,-7.660320282,1.182690582,8.829421807
15.80184254,-4.609065399,-7.766000519,1.429078217,9.143112843
15.81189454,-4.907095642,-8.028554535,1.504221954,9.528901261
15.82194654,-5.100343781,-8.399333496,1.382674713,9.923411672
15.83199754,-5.265600128,-8.745114441,1.242266693,10.2833262
15.84204954,-5.419629822,-9.100625153,0.909059601,10.63109378
15.85210154,-5.607938232,-9.40045166,-0.157023468,10.94724253
15.86215354,-5.835914154,-9.624385986,-0.921783142,11.29320078
15.87220454,-5.531147919,-9.653126221,-0.681083679,11.1463141
15.88225654,-4.879103851,-9.500294037,-0.593366089,10.69641643
15.89230854,-4.518503723,-9.601633301,-1.016236725,10.66025211
15.90235954,-4.283941498,-9.884544983,-1.64986908,10.89855276
15.91241154,-3.773203583,-10.1869162,-3.088227997,11.293692
15.92246354,-2.454595642,-10.24828857,-6.526877289,12.39566802
15.93251454,-2.413431244,-10.59332108,-4.937033386,11.93387617
15.94256654,-3.35347641,-10.91634933,-1.313219147,11.49508727
15.95261854,-3.275488586,-10.50889664,0.596509552,11.02368167
15.96267054,-2.227218475,-9.890083466,0.791853333,10.16864223
15.97272154,-1.616338806,-9.351503448,0.779728546,9.522139701
15.98277354,-1.688189392,-8.936716003,0.726738739,9.12376159
15.99282554,-2.038760376,-8.848699036,0.540975037,9.096629732
16.00287654,-2.218386841,-9.069938965,0.458047485,9.348520765
16.01292854,-2.515069885,-9.544601898,0.491727448,9.882651355
16.02298054,-2.672243042,-10.13901581,0.418230286,10.49359047
16.03303254,-2.565514984,-10.52042267,0.538580017,10.84210444
16.04308354,-2.353705444,-10.76366684,0.862057343,11.05167843
16.05313554,-2.075883179,-10.98625397,1.165027313,11.24119014
16.06318754,-1.566941528,-11.14806747,1.628014526,11.37475914
16.07323854,-0.762963409,-11.35823044,2.337688751,11.62137258
16.08329054,-0.104333038,-11.47259262,3.048560486,11.87118309
16.09334254,0.13921051,-11.46959885,3.235072632,11.91791812
16.10339354,-0.011975098,-11.48381927,3.098107452,11.8943902
16.11344554,0.221688995,-11.08160568,2.953208771,11.47050882
16.12349754,0.813558197,-10.49033524,2.706970825,10.86446968
16.13354954,1.389710083,-10.14694931,2.349963226,10.50781621
16.14360054,1.607956238,-10.20128632,0.981209564,10.37374272
16.15365254,0.617615662,-10.69989944,-3.758085022,11.35748653
16.16370454,-0.319884796,-10.60933777,-3.996389465,11.34158291
16.17375554,-0.580043793,-10.28735733,-3.579805756,10.90784951
16.18380754,-1.00156723,-9.845176849,-3.924688568,10.64583602
16.19385954,-1.913171539,-9.126970367,-4.651576996,10.42108353
16.20391054,-3.023113403,-8.483308868,-5.565726013,10.58692826
16.21396254,-4.109554138,-8.196205902,-5.060376892,10.47251835
16.22401454,-5.073998566,-8.29589859,-3.275937653,10.26153801
16.23406654,-5.62455368,-8.552465057,-0.693657532,10.25969899
16.24411754,-6.005960541,-8.846154327,1.918710022,10.8631237
16.25416954,-6.368356934,-9.232351227,3.806584167,11.84408554
16.26422154,-6.97833847,-9.52798645,4.621339874,12.68213373
16.27427254,-7.807015228,-9.453890533,3.857029266,12.85310109
16.28432454,-8.28182785,-9.023385773,1.820214844,12.38238044
16.29437654,-8.678353271,-8.361761627,0.041463776,12.05133156
16.30442754,-8.661438446,-7.483986969,-0.931213531,11.48467394
16.31447954,-8.248746643,-6.58525589,-1.564247131,10.67025236
16.32453154,-7.744894409,-6.047574005,-2.167342987,10.0625005
16.33458354,-7.620353394,-6.027964783,-2.832110596,10.1206223
16.34463454,-7.55404129,-6.369404755,-3.449576569,10.46577447
16.35468654,-7.112758942,-6.826105042,-3.881727905,10.59503947
16.36473854,-6.415658569,-7.375911713,-4.097279663,10.59964382
16.37478996,-5.655838623,-8.02331543,-4.04264328,10.61626421
16.38484196,-4.854105835,-8.582851868,-3.96196106,10.62660929
16.39489396,-4.155957642,-9.001381531,-4.203408966,10.76872789
16.40494496,-3.400628357,-9.281598816,-4.640799408,10.92013594
16.41499696,-2.795736237,-9.468410339,-4.775369568,10.96681768
16.42504896,-2.386038208,-9.567204895,-4.531376953,10.85163421
16.43510096,-1.928739166,-9.522747345,-4.198768616,10.58453635
16.44515196,-1.423689423,-9.331894226,-4.009562073,10.25610693
16.45520396,-0.853375397,-9.006021881,-3.997437286,9.890206497
16.46525596,-0.451161804,-8.783285065,-4.04728363,9.681433173
16.47530696,-0.327069855,-8.74750946,-4.038302307,9.640216905
16.48535896,-0.452359314,-8.869505768,-4.146527252,9.801349385
16.49541096,-0.341589661,-9.01664978,-4.796625366,10.21881948
16.50546196,0.106278992,-9.097032623,-5.866300964,10.82500738
16.51551396,0.490979004,-9.078471222,-6.379433899,11.10661411
16.52556596,0.367336121,-9.008716278,-4.390370178,10.02832265
16.53561796,-0.545914764,-8.737929382,0.144150238,8.756152815
16.54566896,-1.693578186,-8.270451508,3.625460815,9.1876298
16.55572096,-2.723885651,-7.748936005,4.61131073,9.419646962
16.56577296,-3.364852753,-7.362439728,4.274062042,9.153980508
16.57582396,-3.28446991,-7.054679718,2.929557953,8.31495991
16.58587596,-2.862347717,-6.944808197,0.650247803,7.539643065
16.59592796,-2.63736557,-7.321425018,-2.476749573,8.166593531
16.60597896,-2.669099579,-7.556885376,-3.111130371,8.597077488
16.61603096,-2.484832764,-7.440277863,-2.481389923,8.227358293
16.62608296,-2.370320892,-7.372468872,-2.236948242,8.060747846
16.63613496,-2.367327118,-7.443271637,-2.167792053,8.105914676
16.64618596,-2.466720428,-7.565866699,-2.174078979,8.249464709
16.65623796,-2.723436584,-7.839797058,-2.089205475,8.558288629
16.66628996,-3.07146286,-8.285719757,-2.098186798,9.082368845
16.67634096,-3.436853027,-8.902886353,-2.324516144,9.822256331
16.68639296,-3.60151062,-9.673783264,-2.683469696,10.66555067
16.69644496,-3.761078796,-10.51772827,-3.363505554,11.66539718
16.70649596,-4.096531219,-11.31691635,-3.976181488,12.67533759
16.71654796,-4.529281311,-11.8471138,-4.408632202,13.42775232
16.72659996,-4.722379761,-11.56495056,-5.212161255,13.53571487
16.73665196,-4.502786407,-10.70034851,-6.012696533,13.07383124
16.74670296,-4.167633362,-10.13123199,-6.582262115,12.78034444
16.75675496,-3.85313736,-9.707313538,-6.848109283,12.48900334
16.76680696,-3.496578827,-9.461824036,-6.046376495,11.76056318
16.77685796,-3.4810112,-9.731413422,-3.482358398,10.9061756
16.78690996,-4.405638428,-10.31624725,-0.678838348,11.2381239
16.79696196,-5.290298767,-10.37717056,0.696052551,11.66865113
16.80701296,-5.570965118,-9.81464035,0.846489716,11.31721531
16.81706496,-5.560037842,-9.058562622,0.80382843,10.65916121
16.82711696,-5.490133209,-8.566835175,0.93375824,10.21783402
16.83716896,-5.288053436,-8.583899689,0.841400299,10.11705478
16.84721996,-5.207371216,-9.10092453,0.226628723,10.48784548
16.85727196,-5.276527405,-9.622140656,-0.830173645,11.00529511
16.86732396,-5.24554184,-9.838141479,-1.246757355,11.21869604
16.87737496,-5.172044678,-9.831405487,-0.841400299,11.14067029
16.88742696,-4.984335022,-9.63920517,-0.525557098,10.86434914
16.89747896,-4.542004852,-9.439520416,-0.718954926,10.50005952
16.90752996,-3.736978912,-9.312584381,-1.43566452,10.13658581
16.91758196,-2.377505951,-9.092242584,-3.404220886,9.99550547
16.92763396,-0.891845398,-9.001830597,-5.111271057,10.3900642
16.93768596,-0.98749649,-9.278155975,-3.542832642,9.980530584
16.94773696,-1.491947479,-9.472002869,-1.848506012,9.765332565
16.95778896,-1.52233429,-9.486223297,-1.182540894,9.680100056
16.96784096,-1.275497589,-9.323661346,-0.671353912,9.434419488
16.97789196,-1.297950897,-9.356143799,-0.183817749,9.447533661
16.98794396,-1.503623199,-9.339528351,0.213905182,9.462210522
16.99799596,-1.796264648,-9.314081268,0.709524536,9.512208031
17.00804696,-2.135309601,-9.473350067,1.25199646,9.791394371
17.01809896,-2.340383148,-9.579329681,1.687440948,10.00441939
17.02815096,-2.367177429,-9.561516724,2.247426453,10.10331909
17.03820296,-2.318229218,-9.55612793,2.93344986,10.26152502
17.04825396,-2.349663849,-9.647138672,3.202440491,10.43282463
17.05830596,-2.627635803,-9.826765137,3.087479553,10.6302546
17.06835796,-3.040477295,-10.03573059,2.567760315,10.79600777
17.07840896,-3.322939911,-10.08946884,1.93293045,10.79701492
17.08846096,-3.443439331,-10.009086,1.578916626,10.70196499
17.09851296,-3.561394043,-9.762548676,1.380878448,10.48321084
17.10856396,-3.650309143,-9.382638702,1.245410156,10.14444243
17.11861596,-3.724105682,-8.897796936,1.29405899,9.732129372
17.12866796,-3.739972687,-8.35906723,1.406774597,9.265010277
17.13871996,-3.718866577,-7.823480988,1.437460785,8.780838052
17.14877096,-3.729943542,-7.443720703,1.531465302,8.46562713
17.15882296,-3.87529129,-7.281757507,1.656455383,8.413424952
17.16887496,-4.091292114,-7.254663849,1.734742584,8.507534928
17.17892596,-4.341571655,-7.410040741,1.739382935,8.762613835
17.18897796,-4.641398163,-7.695197754,1.709295502,9.147695693
17.19902996,-4.884941711,-8.039781189,1.643432465,9.549953265
17.20908096,-5.189558258,-8.4351091,1.565294952,10.02660106
17.21913296,-5.476212158,-8.898695068,1.452279968,10.54916066
17.22918496,-5.644312592,-9.299411774,1.271755371,10.95238265
17.23923696,-5.704487457,-9.49056427,1.038690033,11.12163946
17.24928796,-5.529201965,-9.479187927,0.750838623,10.99958348
17.25933996,-5.096002808,-9.280550995,0.459394684,10.59759005
17.26939196,-4.619842987,-9.051527252,0.148491211,10.16342189
17.27944296,-4.181255035,-8.948391724,-0.509989471,9.890232423
17.28949496,-3.801045685,-9.005423126,-1.242715759,9.853422575
17.29954696,-3.58743988,-9.177415466,-1.778152313,10.01281705
17.30959796,-3.509452057,-9.357790375,-1.978136444,10.1881067
17.31964996,-3.617826691,-9.545200653,-1.962119751,10.39468323
17.32970196,-3.694766693,-9.709109802,-2.774929504,10.75259726
17.33975296,-3.30782135,-9.708511047,-6.353986816,12.06524004
17.34980496,-3.639381866,-9.783954163,-4.505480804,11.3697061
17.35985696,-4.209246826,-9.858948212,-1.176253967,10.78425668
17.36990896,-3.762425995,-9.450597382,-0.129630432,10.17282873
17.37995954,-2.95799881,-9.019643555,-0.055684204,9.492461617
17.39001154,-2.74035141,-8.839568024,0.200283508,9.25675981
17.40006354,-3.041225739,-8.841663666,0.714164886,9.377318479
17.41011454,-3.560346222,-8.849297791,1.084195404,9.600084181
17.42016654,-3.907174988,-8.932225342,1.297202454,9.835313932
17.43021854,-4.051624603,-9.077722778,1.386416931,10.03707451
17.44027054,-4.142186279,-9.147926788,1.395847321,10.13857295
17.45032154,-4.206851807,-9.151968384,1.313668213,10.1578468
17.46037354,-4.276457062,-9.091194763,1.247056732,10.1238855
17.47042554,-4.293970642,-9.027876434,1.140927429,10.06193084
17.48047654,-4.247866516,-8.889564056,1.016087036,9.904602562
17.49052854,-4.129313049,-8.722361755,0.88810318,9.691209837
17.50058054,-4.060007172,-8.634494476,0.778980103,9.573137578
17.51063154,-4.10700943,-8.641679535,0.708177338,9.594147528
17.52068354,-4.271667023,-8.71832016,0.68332901,9.732583629
17.53073554,-4.522545319,-8.797355804,0.695154419,9.916154747
17.54078654,-4.827311554,-8.915609894,0.763262787,10.16728119
17.55083854,-5.193899231,-9.095386047,0.85187851,10.50848864
17.56089054,-5.563480682,-9.26707901,0.968336334,10.85213094
17.57094254,-5.855822754,-9.360484772,1.108295288,11.09674068
17.58099354,-6.064339142,-9.348060608,1.248104553,11.21250246
17.59104554,-6.18858078,-9.179062042,1.373543701,11.1552828
17.60109754,-6.236930237,-8.891809387,1.473835144,10.9606461
17.61114854,-6.19441864,-8.598868561,1.500928802,10.7034644
17.62120054,-6.148314514,-8.410709839,1.466799774,10.52108896
17.63125254,-6.163433075,-8.318501587,1.357676697,10.44167908
17.64130354,-6.309229889,-8.337661743,1.174906769,10.5215679
17.65135554,-6.620133362,-8.409961395,0.460292816,10.71286544
17.66140754,-7.259004822,-8.38017334,-4.772375793,12.07046092
17.67145954,-8.949289856,-8.871302032,-19.43258972,23.16064187
17.68151054,-8.084238739,-9.900411987,-11.73185349,17.34962419
17.69156254,-7.156767426,-10.29948212,-0.804127808,12.56762799
17.70161454,-6.140081635,-10.23376877,3.594175873,12.4638969
17.71166554,-5.676345978,-10.66157913,1.859133911,12.2207427
17.72171754,-5.837860107,-11.34356094,-0.791703644,12.78216649
17.73176954,-4.911885681,-12.0077298,-1.310225372,13.0395125
17.74182054,-3.760929108,-12.58507919,-1.163231049,13.1864291
17.75187254,-3.044818268,-13.29834595,-0.92088501,13.6735128
17.76192454,-2.580334167,-14.00023636,-0.40954834,14.24192657
17.77197554,-1.984872437,-14.71155716,0.046553192,14.84492505
17.78202754,-2.559976501,-15.30252823,-0.114362183,15.51560275
17.79207954,-3.786675568,-14.68296661,0.352816315,15.16749484
17.80213154,-3.451372833,-12.74315048,0.616567841,13.21665671
17.81218254,-2.781216431,-10.3833078,0.458795929,10.75912354
17.82223454,-2.598596191,-8.510851593,0.077987823,8.899066193
17.83228654,-2.978506165,-7.36797821,-0.333057404,7.954214551
17.84233754,-3.441044312,-6.703509979,-0.926573181,7.591862081
17.85238954,-3.93262207,-6.23887619,-0.945883026,7.435306797
17.86244154,-4.272415466,-5.972430267,-0.78391983,7.384983921
17.87249354,-4.464316406,-5.823340302,-0.551752625,7.358385978
17.88254454,-4.689298553,-5.811664581,-0.393831024,7.477972252
17.89259654,-4.785249023,-5.948480072,-0.305664368,7.640448553
17.90264854,-4.738396454,-6.09263031,-0.287102966,7.723663196
17.91269954,-4.245471497,-6.326444092,-0.332159271,7.626155837
17.92275154,-3.204236755,-6.648574219,-0.330812073,7.387835201
17.93280354,-2.267335052,-6.952891388,-0.383203125,7.323274645
17.94285454,-1.924398193,-7.141798553,-0.346230011,7.40462492
17.95290654,-1.791324921,-7.245233459,-0.415535889,7.474953039
17.96295854,-1.467697906,-7.148534546,-0.697549438,7.330911166
17.97300954,-1.077459412,-6.943460999,-0.932860107,7.088215389
17.98306154,-0.763262787,-6.66129776,-0.964893494,6.773955815
17.99311354,-0.36269577,-6.303541718,-0.945733337,6.384402709
18.00316554,-0.158969421,-6.011648712,-1.021625519,6.099910673
18.01321654,-0.077538757,-5.786965942,-0.956810303,5.86604407
18.02326854,-0.017214203,-5.760770416,-0.924627228,5.834527198
18.03332054,-0.072898407,-5.971232758,-0.863254852,6.03375039
18.04337154,-0.231269073,-6.389612732,-0.8599617,6.451369651
18.05342354,-0.619711304,-6.92804306,-0.796493683,7.001158828
18.06347554,-1.106049957,-7.424261169,-0.822838898,7.551163107
18.07352654,-1.831890564,-8.121660919,-0.995429993,8.384991353
18.08357854,-3.030148773,-9.200168152,-1.420246582,9.789892541
18.09363054,-4.568350067,-10.45036835,-2.45714035,11.66694303
18.10368254,-6.350843353,-11.32185608,-4.359983368,13.69405314
18.11373354,-8.926836548,-11.6095578,-6.056555328,15.8477792
18.12378554,-11.65102158,-11.14118179,-6.22720047,17.28150055
18.13383754,-13.87883881,-10.11102402,-3.878285065,17.60386515
18.14388854,-15.39503586,-8.936716003,-0.772992554,17.81767492
18.15394054,-15.60983917,-7.468419342,0.809815979,17.32339945
18.16399254,-13.98496811,-5.926326141,-0.129031677,15.18938194
18.17404354,-11.19941071,-5.010231171,-1.558259583,12.36759433
18.18409554,-9.960287476,-5.421276398,-2.056723022,11.52508889
18.19414754,-9.609566803,-6.741680603,-3.044369202,12.1269211
18.20419854,-8.776100006,-8.491392059,-3.865711212,12.80887948
18.21425054,-7.315886536,-10.7018454,-3.375630341,13.3957669
18.22430254,-6.021677856,-13.04627014,-1.824705505,14.48431286
18.23435454,-4.991669769,-14.74733276,-0.419876862,15.57488001
18.24440554,-4.244124298,-15.15583328,0.59441391,15.75008576
18.25445754,-3.877835999,-14.15740952,0.652792511,14.69339968
18.26450954,-3.263812866,-12.34423004,-0.555644531,12.78050197
18.27456054,-2.625240784,-10.51413574,-1.265468445,10.9105614
18.28461254,-2.193089447,-8.888067169,-0.870439911,9.195925455
18.29466454,-1.410367126,-7.36333786,-0.531993713,7.516042655
18.30471554,-0.21525238,-5.839806061,-0.49726593,5.864890606
18.31476754,0.635578308,-4.561763763,-0.437989197,4.626605987
18.32481954,0.994980927,-3.733536072,-1.240620117,4.058129732
18.33487154,1.065634003,-3.654500427,-3.103196869,4.911291073
18.34492254,0.953517151,-4.739593964,-4.931045837,6.905661369
18.35497454,-0.229772186,-6.680457916,-5.358107758,8.566833252
18.36502654,-2.484832764,-8.948691101,-2.617307281,9.649029158
18.37507817,-4.232298889,-10.73642349,1.370250549,11.62156314
18.38513017,-5.087320862,-11.52752838,3.687581635,13.12870909
18.39518217,-5.424419861,-11.98871933,3.845652924,13.70922202
18.40523317,-5.772446136,-12.05607925,3.617677002,13.84766292
18.41528517,-6.01194809,-11.40418488,3.41784256,13.33718862
18.42533717,-6.135291595,-10.33346146,3.221151581,12.44178629
18.43538917,-5.838009796,-9.085656281,2.638862457,11.11733347
18.44544017,-5.243296509,-7.954608307,2.050136719,9.745307187
18.45549217,-4.639003143,-7.51901413,1.6708255,8.991528318
18.46554417,-4.189637604,-7.629185028,1.315913544,8.802792506
18.47559517,-3.982019348,-7.907905426,0.940943298,8.903753175
18.48564717,-4.028273163,-8.221652985,0.566422119,9.172970974
18.49569917,-4.226760406,-8.627758484,-0.009430389,9.607487128
18.50575017,-4.373155975,-8.982371063,-0.678538971,10.01338595
18.51580217,-4.204307098,-9.163644104,-1.15020813,10.14748985
18.52585417,-3.788172455,-9.114246826,-1.257534943,9.949931652
18.53590617,-3.401825867,-9.064550171,-1.155596924,9.750584253
18.54595717,-3.244053955,-8.979826355,-1.00515976,9.600599646
18.55600917,-3.094365234,-8.787626038,-0.759670258,9.347436359
18.56606117,-2.972817993,-8.582851868,-0.427810364,9.09318507
18.57611217,-2.905757446,-8.437653809,-0.195942535,8.926131391
18.58616417,-2.85740799,-8.291856995,-0.141156464,8.771521988
18.59621617,-2.796634369,-8.189769287,-0.119002533,8.654920356
18.60626717,-2.661764832,-8.022716675,0.053887939,8.452921316
18.61631917,-2.622995453,-7.895331573,0.3556604,8.327236043
18.62637117,-2.664608917,-7.914342041,0.612376556,8.373288223
18.63642217,-2.861898651,-8.08648407,0.754880219,8.611128419
18.64647417,-3.235072632,-8.387807465,0.901425476,9.035130153
18.65652617,-3.547173615,-8.754395142,0.99812439,9.498322338
18.66657817,-3.668870544,-9.064101105,1.08120163,9.838065708
18.67662917,-3.793860626,-9.24133255,1.088536377,10.04890627
18.68668117,-3.862567749,-9.356293488,1.176253967,10.19034989
18.69673317,-3.777394867,-9.272467804,1.203946381,10.08448601
18.70678417,-3.571722565,-9.004075928,1.115929413,9.750686327
18.71683617,-3.314108276,-8.672964478,0.913699951,9.329441253
18.72688817,-3.18732193,-8.471483459,0.644110565,9.074135304
18.73693917,-3.19196228,-8.514294434,0.416134644,9.102472243
18.74699117,-3.339255981,-8.711434479,0.2468367,9.332772875
18.75704317,-3.595223694,-9.000034332,0.084424438,9.691923384
18.76709517,-3.770509186,-9.246571655,-0.061372375,9.985969831
18.77714617,-3.748804321,-9.353449402,-0.248183899,10.07978893
18.78719817,-3.53834198,-9.284742279,-0.495918732,9.948479208
18.79725017,-3.151396637,-9.028924255,-0.730930023,9.590987054
18.80730117,-2.77777359,-8.744665375,-0.861308899,9.215587429
18.81735317,-2.798580322,-8.716823273,-0.820892944,9.191785736
18.82740517,-3.281476135,-9.017547913,-0.61896286,9.615995581
18.83745617,-3.887565765,-9.439819794,-0.35341507,10.21509998
18.84750817,-4.354295197,-9.832303619,-0.151484985,10.75439579
18.85756017,-4.691244507,-10.17449203,-0.079933777,11.20421584
18.86761217,-5.001399536,-10.52326675,-0.054337006,11.65144167
18.87766317,-5.211712189,-10.67235672,-0.014968872,11.87692578
18.88771517,-5.155129852,-10.46399002,0.048199768,11.66502354
18.89776717,-4.980892181,-10.02839584,0.119152222,11.1978662
18.90781817,-4.93658432,-9.573342133,0.251027985,10.77412453
18.91787017,-5.122048645,-9.347611542,0.532592468,10.67224806
18.92792217,-5.449866943,-9.364825745,0.890498199,10.8717063
18.93797317,-5.816005554,-9.406888275,1.248254242,11.12985203
18.94802517,-6.119873657,-9.297615509,1.553020477,11.2387891
18.95807717,-6.439608765,-9.112899628,1.60301651,11.27311681
18.96812817,-6.628964996,-8.957971802,0.980161743,11.18700821
18.97818017,-6.640640717,-8.958570557,-6.429878998,12.87235175
18.98823217,-6.040688324,-9.891730042,-19.91413834,23.04146576
18.99828417,-4.781357117,-10.82488953,-11.19506973,16.2901564
19.00833517,-4.243375854,-11.13339798,-1.156195679,11.97061309
19.01838717,-3.797303467,-11.13953522,4.220772858,12.50294693
19.02843917,-2.928809509,-11.52483398,2.213896179,12.0954975
19.03849017,-2.755469971,-12.67743713,-1.387614441,13.04743273
19.04854217,-2.433190155,-12.78027328,-0.86115921,13.0383049
19.05859417,-2.403551788,-12.56322464,0.243693237,12.79339912
19.06864517,-2.206262054,-12.49825974,0.994082794,12.73036878
19.07869717,-2.378404083,-12.43134888,0.993184662,12.6957338
19.08874917,-3.352877655,-12.04590042,0.571960602,12.51689436
19.09880117,-4.485721893,-11.20405106,-0.397124176,12.07518814
19.10885217,-4.811294861,-9.867630157,-0.306712189,10.98238387
19.11890417,-5.007836151,-8.71128479,0.382903748,10.05542246
19.12895617,-4.983736267,-7.724387054,0.732127533,9.221702298
19.13900717,-5.020709381,-6.994205475,1.134640503,8.684114347
19.14905917,-4.977748718,-6.558461609,0.786614227,8.271043642
19.15911117,-5.050497437,-6.443800049,0.31120285,8.193102626
19.16916217,-5.090164948,-6.506968689,0.005538483,8.26138314
19.17921417,-4.938081207,-6.643933868,-0.068557434,8.278357529
19.18926617,-4.704566803,-6.868017883,0.095501404,8.325367197
19.19931717,-4.452790375,-7.143894196,0.162861328,8.419565916
19.20936917,-4.203858032,-7.395520935,0.225580902,8.509820151
