Time (s),Acceleration x (m/s^2),Acceleration y (m/s^2),Acceleration z (m/s^2),Absolute acceleration (m/s^2)
-0.001023458,-0.579295349,0.967138824,9.571096802,9.637262817
0.009027542,-0.521365814,0.964594116,9.5233461,9.586260223
0.019079542,-0.503403168,0.942140808,9.577234039,9.636620564
0.029131542,-0.521515503,0.894839172,9.695937195,9.751098074
0.039183542,-0.497864685,0.868943024,9.704469452,9.756006282
0.049235542,-0.46104126,0.871487732,9.561067657,9.61176699
0.059286542,-0.434845734,0.882115631,9.3455159,9.397121167
0.069338542,-0.404758301,0.88690567,9.181906128,9.233516724
0.079390542,-0.400417328,0.878373413,9.180259552,9.230874245
0.089442542,-0.392184448,0.871637421,9.212292938,9.261743983
0.099493542,-0.415086823,0.845741272,9.272318115,9.320056792
0.109545542,-0.447120209,0.818647614,9.393565979,9.439766003
0.119597542,-0.454754333,0.796343994,9.608968048,9.652628254
0.129649542,-0.517623596,0.741557922,9.915829926,9.956983753
0.139701542,-0.470172272,0.74305481,10.2068248,10.24463103
0.149752542,-0.404009857,0.763262787,10.17060013,10.20719849
0.159804542,-0.44233017,0.754880219,10.03737717,10.07543748
0.169856542,-0.474363556,0.799487457,9.999954987,10.04307227
0.179908542,-0.477507019,0.83421524,9.987081757,10.03323129
0.189960542,-0.486488342,0.827479248,9.927954712,9.974250727
0.200011542,-0.494721222,0.770447845,9.84278183,9.885276583
0.210063542,-0.433199158,0.744551697,9.784852295,9.82269582
0.220115542,-0.375718689,0.768501892,9.697733459,9.735388741
0.230167542,-0.37796402,0.742306366,9.549691315,9.585952209
0.240219542,-0.415535889,0.716559906,9.479786682,9.515906878
0.250270542,-0.467627563,0.692759399,9.48592392,9.52267524
0.260322542,-0.483943634,0.656085663,9.572743378,9.607396401
0.270374542,-0.414338379,0.64006897,9.676777039,9.706769722
0.280426542,-0.375269623,0.606688385,9.775122528,9.801118228
0.290478542,-0.36149826,0.592467957,9.806257782,9.830787911
0.300529542,-0.308358765,0.621507568,9.846074982,9.870488809
0.310581542,-0.284707947,0.643362122,9.846524048,9.871626475
0.320633542,-0.321980438,0.671054535,9.800569611,9.828791904
0.330685542,-0.369282074,0.705632629,9.742640076,9.775137968
0.340737542,-0.387394409,0.728385315,9.748477936,9.783324673
0.350788542,-0.419727173,0.72658905,9.772128754,9.808088648
0.360840542,-0.404608612,0.727636871,9.754615173,9.790080731
0.370892542,-0.396824799,0.715063019,9.744735718,9.778990707
0.380944542,-0.417930908,0.705782318,9.752220154,9.786653813
0.390996542,-0.443976746,0.721200256,9.786498871,9.823075145
0.401047542,-0.396824799,0.719403992,9.793683929,9.82808511
0.411099542,-0.404758301,0.720002747,9.775421906,9.810255179
0.421151542,-0.41074585,0.674796753,9.739496613,9.771481826
0.431203542,-0.340092773,0.667162628,9.725425873,9.754213319
0.441255542,-0.373024292,0.666713562,9.744136963,9.774040068
0.451306542,-0.4352948,0.639170837,9.764644318,9.795218199
0.461358542,-0.374820557,0.596210175,9.77721817,9.802548249
0.471410542,-0.323776703,0.579295349,9.75266922,9.775222318
0.481462542,-0.319585419,0.555345154,9.709858246,9.730975811
0.491514542,-0.330512695,0.584833832,9.71868988,9.741878784
0.501565542,-0.324974213,0.625549164,9.792187042,9.817527543
0.511617542,-0.334254913,0.613274689,9.823322296,9.848121299
0.521669542,-0.325872345,0.606838074,9.794582062,9.81877197
0.531721542,-0.360600128,0.626147919,9.765093384,9.791789543
0.541773542,-0.388292542,0.646355896,9.768536224,9.79759394
0.551824542,-0.372425537,0.661474457,9.764794006,9.794256032
0.561876542,-0.328267365,0.661624146,9.801916809,9.829703917
0.571928542,-0.301622772,0.644859009,9.793384552,9.81922606
0.581980542,-0.313148804,0.645607452,9.762249298,9.788584296
0.592031542,-0.332608337,0.653840332,9.715845795,9.743500141
0.602083542,-0.338446198,0.662971344,9.695787506,9.724318598
0.612135542,-0.370030518,0.647254028,9.691596222,9.72023136
0.622187542,-0.409099274,0.647553406,9.728569336,9.758675574
0.632239542,-0.339943085,0.613873444,9.764045563,9.789228144
0.642290542,-0.283809814,0.594862976,9.783505096,9.805681106
0.652342542,-0.287701721,0.577349396,9.793534241,9.814755093
0.662394542,-0.329015808,0.578995972,9.844727783,9.867226199
0.672446542,-0.381556549,0.612526245,9.898316345,9.924587663
0.682498542,-0.4153862,0.59201889,9.956545258,9.982776444
0.692549542,-0.431103516,0.584684143,9.974208527,10.00062706
0.702601542,-0.482746124,0.571212158,10.0753981,10.10311705
0.712653542,-0.586031342,0.556842041,10.43001068,10.46129192
0.722705542,-0.762214966,0.501307526,11.196866,11.23397032
0.732757542,-0.773291931,0.355510712,11.7156871,11.74656088
0.742808542,-0.860111389,0.468226318,11.36331985,11.40544018
0.752860542,-0.820892944,0.917442169,10.87129303,10.94077591
0.762912208,-0.617615662,1.117575989,10.49258057,10.56998922
0.772964208,-0.435743866,1.1373349,10.05234604,10.12586116
0.783016208,-0.270038452,1.060245209,9.53741684,9.5999667
0.793067208,-0.146545258,1.013542328,9.161997528,9.21905322
0.803119208,-0.061222687,1.015787659,8.983418884,9.040873168
0.813171208,-0.0597258,1.05545517,8.914412384,8.976875901
0.823223208,-0.122445374,1.068927155,8.892108765,8.956963571
0.833275208,-0.175135803,1.107097778,8.853489075,8.924158607
0.843326208,-0.189655609,1.144519958,8.789571991,8.865803459
0.853378208,-0.19309845,1.175505524,8.684490509,8.765812892
0.863430208,-0.216300201,1.161285095,8.67850296,8.758526273
0.873482208,-0.232765961,1.124162292,8.697962494,8.773395716
0.883534208,-0.273930359,1.079854431,8.76277771,8.833311759
0.893585208,-0.246986389,1.009500732,8.882528687,8.943120813
0.903637208,-0.214503937,0.948128357,9.093140717,9.144953111
0.913689208,-0.185314636,0.903371429,9.325457611,9.370943448
0.923741208,-0.157472534,0.851130066,9.616302795,9.655179928
0.933793208,-0.080233154,0.933608551,9.927655334,9.971780319
0.943844208,-0.060623932,0.948128357,9.99606308,10.04111048
0.953896208,-0.31120285,0.682580566,10.08003845,10.10791465
0.963948208,-0.290545807,0.796194305,10.37761963,10.41217227
0.974000208,-0.136516113,0.994082794,10.33840118,10.3869811
0.984052208,-0.115709381,1.033600616,10.18482056,10.23778729
0.994103208,-0.171243896,1.02147583,10.07090744,10.12402657
1.004155208,-0.182769928,1.019230499,9.901160431,9.955160146
1.014207208,-0.184566193,1.041085052,9.753417664,9.81055956
1.024259208,-0.177680511,1.048868866,9.722132721,9.780161599
1.034311208,-0.206869812,1.047671356,9.748328247,9.80664642
1.044362208,-0.239501953,1.04258194,9.724827118,9.783486125
1.054414208,-0.229772186,1.048569489,9.691895599,9.751160625
1.064466208,-0.241298218,1.040336609,9.660910034,9.719758628
1.074518208,-0.242944794,1.048719177,9.569599915,9.629957249
1.084570208,-0.289497986,1.048270111,9.509125671,9.571110194
1.094621208,-0.310155029,1.046324158,9.506281586,9.568718826
1.104673208,-0.317190399,1.033301239,9.571845245,9.632680966
1.114725208,-0.320333862,1.041983185,9.634265442,9.695742021
1.124777208,-0.302071838,1.042282562,9.699380035,9.759896178
1.134829208,-0.289797363,1.041833496,9.768985291,9.828655714
1.144880208,-0.27617569,1.021625519,9.775571594,9.832689953
1.154932208,-0.266595612,1.010698242,9.779164124,9.834868332
1.164984208,-0.264649658,1.019829254,9.779164124,9.835758339
1.175036208,-0.256716156,1.037642212,9.819430389,9.877439836
1.185088208,-0.250129852,1.047371979,9.851463776,9.910140843
1.195139208,-0.226329346,1.044976959,9.838889923,9.896815485
1.205191208,-0.204325104,1.052611084,9.801916809,9.860391066
1.215243208,-0.200283508,1.037043457,9.779463501,9.836334631
1.225295208,-0.181422729,1.030906219,9.732461243,9.788589463
1.235347208,-0.17079483,1.037941589,9.689051514,9.745984448
1.245398208,-0.166603546,1.011746063,9.662855988,9.717107217
1.255450208,-0.19654129,0.9794133,9.647887115,9.699464144
1.265502208,-0.189356232,0.981209564,9.60642334,9.658260577
1.275554208,-0.169447632,0.99228653,9.575886841,9.628652753
1.285606208,-0.151035919,0.998274078,9.548194427,9.601425926
1.295657208,-0.115559692,0.995280304,9.528435516,9.580971783
1.305709208,-0.096399536,1.008153534,9.584568787,9.637926398
1.315761208,-0.088166656,1.00980011,9.644294586,9.697416547
1.325813208,-0.1088237,0.991837463,9.679022369,9.730316448
1.335865208,-0.114811249,0.992885284,9.704469452,9.755804946
1.345916208,-0.113613739,0.997076569,9.76434494,9.81577821
1.355968208,-0.103135529,1.025068359,9.799072723,9.853082173
1.366020208,-0.102237396,1.016236725,9.821376343,9.87434164
1.376072208,-0.114960938,1.019380188,9.837542725,9.890884634
1.386124208,-0.139509888,1.01324295,9.792935486,9.846202807
1.396175208,-0.145497437,1.017434235,9.744885406,9.798935325
1.406227208,-0.175884247,1.014290771,9.707912292,9.762339992
1.416279208,-0.210312653,1.010398865,9.695637817,9.750411784
1.426331208,-0.257165222,0.995579681,9.675729218,9.730213191
1.436383208,-0.374521179,0.961300964,9.703870697,9.758558918
1.446434208,-0.52885025,0.946182404,9.747879181,9.807960657
1.456486208,-0.721349945,0.921034698,9.746382294,9.816344456
1.466538208,-0.809067535,0.969234467,9.718390503,9.800057127
1.476590208,-0.826281738,1.080153809,9.633966064,9.729479734
1.486642208,-0.852477264,1.121467896,9.472601624,9.576773426
1.496693208,-0.84244812,1.130149841,9.282646637,9.389062045
1.506745208,-0.808319092,1.130449219,9.154064026,9.258951527
1.516797208,-0.664767609,1.140478363,9.163494415,9.258090341
1.526849208,-0.508791962,1.079704742,9.277108154,9.353575108
1.536901208,-0.436641998,1.021026764,9.448052673,9.513088416
1.546952208,-0.400417328,0.918639679,9.602830811,9.654977601
1.557004208,-0.332758026,0.844992828,9.695488129,9.737927441
1.567056208,-0.216150513,0.810414734,9.82751358,9.863240657
1.577108208,-0.098195801,0.787362671,9.953401794,9.984978201
1.587160208,-0.013172607,0.73482193,9.997110901,10.02408914
1.597211208,0.07843689,0.684975586,10.01148102,10.03519288
1.607263208,0.171842651,0.631387024,9.98199234,10.00341694
1.617315208,0.264499969,0.582139435,9.962233429,9.982732164
1.627367208,0.312100983,0.547860718,9.95040802,9.970364996
1.637419208,0.327967987,0.523611145,9.971663818,9.990786302
1.647470208,0.281115417,0.504001923,10.02854553,10.0451366
1.657522208,0.276924133,0.493224335,10.03992188,10.0558435
1.667574208,0.280366974,0.51717453,10.07090744,10.08807473
1.677626208,0.266894989,0.539029083,10.01686981,10.03491236
1.687678208,0.26090744,0.560135193,9.944420471,9.963599883
1.697729208,0.288599854,0.578546906,9.848919067,9.870117182
1.707781208,0.253722382,0.620010681,9.769733734,9.792675096
1.717833208,0.204175415,0.618513794,9.721234589,9.743030783
1.727885208,0.16615448,0.635129242,9.711355133,9.733520174
1.737937208,0.107326813,0.646655273,9.704918518,9.727030664
1.747988208,0.037272491,0.679586792,9.676777039,9.700682517
1.758040667,-0.027991791,0.686771851,9.619895325,9.64441938
1.768092667,-0.062270508,0.697100372,9.629325714,9.654726317
1.778144667,-0.090411987,0.689915314,9.658215637,9.683247738
1.788196667,-0.109123077,0.677940216,9.711953888,9.736198391
1.798247667,-0.104033661,0.679886169,9.780511322,9.804665722
1.808299667,-0.11705658,0.661923523,9.833650818,9.85659847
1.818351667,-0.145796814,0.62480072,9.853559418,9.874424836
1.828403667,-0.18366806,0.622854767,9.871522064,9.892857518
1.838455667,-0.210013275,0.618364105,9.831405487,9.853071277
1.848506667,-0.217198334,0.603844299,9.796378326,9.817373955
1.858558667,-0.239801331,0.592168579,9.777966614,9.798816225
1.868610667,-0.236657867,0.561482391,9.773925018,9.792899452
1.878662667,-0.238154755,0.557740173,9.749525757,9.768369581
1.888714667,-0.253273315,0.552501068,9.741442566,9.760384627
1.898765667,-0.31479538,0.543669434,9.751322021,9.771537942
1.908817667,-0.40490799,0.557740173,9.754914551,9.779232203
1.918869667,-0.484841766,0.579445038,9.821825409,9.850841713
1.928921667,-0.508642273,0.624950409,9.842632141,9.875560108
1.938973667,-0.440084839,0.659678192,9.729467468,9.761730748
1.949024667,-0.298778687,0.678089905,9.629625092,9.65809267
1.959076667,-0.154029694,0.664019165,9.589807892,9.614003433
1.969128667,-0.027093658,0.667162628,9.620194702,9.643338952
1.979180667,0.060474243,0.662971344,9.674531708,9.697409546
1.989232667,0.042212219,0.615070953,9.743837585,9.763322439
1.999283667,-0.024848328,0.545465698,9.771829376,9.787073088
2.009335667,-0.055534515,0.521964569,9.799222412,9.813271166
2.019387667,-0.049696655,0.529748383,9.798623657,9.813059089
2.029439667,-0.022004242,0.540376282,9.766141205,9.781104475
2.039491667,0.0199086,0.521365814,9.729766846,9.743745765
2.049542667,0.055085449,0.506247253,9.740694122,9.753996241
2.059594667,0.083675995,0.480500793,9.735754395,9.747963701
2.069646667,0.084873505,0.461490326,9.789342957,9.800582246
2.079698667,0.0490979,0.437540131,9.830207977,9.840063051
2.089750667,0.010627899,0.427211609,9.904004517,9.913219869
2.099801667,-0.026494904,0.433348846,9.933792572,9.94327552
2.109853667,-0.057031403,0.441881104,9.950258331,9.960228529
2.119905667,-0.036374359,0.459244995,9.92930191,9.939983173
2.129957667,0.007933502,0.485440521,9.859247589,9.871194379
2.140009667,0.026345215,0.487386475,9.79592926,9.808081857
2.150060667,0.029937744,0.497714996,9.765991516,9.778711918
2.160112667,0.025896149,0.491577759,9.73740097,9.74983574
2.170164667,-0.011376343,0.491877136,9.744735718,9.757148495
2.180216667,-0.041613464,0.504001923,9.785600739,9.798659675
2.190268667,-0.0597258,0.505349121,9.8299086,9.843071065
2.200319667,-0.064665527,0.495769043,9.854158173,9.866833426
2.210371667,-0.09595047,0.476309509,9.84861969,9.860597702
2.220423667,-0.082179108,0.447868652,9.807904358,9.818468701
2.230475667,-0.072748718,0.446072388,9.77721817,9.787658969
2.240527667,-0.093106384,0.447419586,9.785001984,9.795668272
2.250578667,-0.10418335,0.447868652,9.768536224,9.779352763
2.260630667,-0.130528564,0.432001648,9.751771088,9.762207869
2.270682667,-0.178428955,0.42586441,9.787546692,9.798431897
2.280734667,-0.207767944,0.430504761,9.797575836,9.809230048
2.290786667,-0.223634949,0.448766785,9.816735992,9.82953253
2.300837667,-0.232167206,0.442479858,9.824519806,9.837219091
2.310889667,-0.237855377,0.437689819,9.795031128,9.80768996
2.320941667,-0.232765961,0.463885345,9.759854279,9.773644415
2.330993667,-0.235610046,0.474363556,9.73740097,9.751795247
2.341045667,-0.216300201,0.502505035,9.756261749,9.771588428
2.351096667,-0.203277283,0.516875153,9.777667236,9.793429336
2.361148667,-0.199984131,0.53124527,9.828112335,9.844491214
2.371200667,-0.195643158,0.536334686,9.841434631,9.857979851
2.381252667,-0.182021484,0.520317993,9.880503387,9.895868321
2.391304667,-0.192948761,0.486188965,9.82167572,9.835594689
2.401355667,-0.198786621,0.539777527,9.768087158,9.785009077
2.411407667,-0.174537048,0.633632355,9.771679688,9.793757045
2.421459667,-0.227975922,0.650696869,9.732161865,9.756554413
2.431511667,-0.35925293,0.604443054,9.657018127,9.682582981
2.441563667,-0.381706238,0.594713287,9.602681122,9.62864831
2.451614667,-0.316142578,0.593665466,9.556427307,9.580067207
2.461666667,-0.209264832,0.596210175,9.536518707,9.557428911
2.471718667,-0.145497437,0.556243286,9.565708008,9.582971657
2.481770667,-0.094004517,0.499511261,9.62049408,9.633911702
2.491822667,-0.039368134,0.502654724,9.70821167,9.721295461
2.501873667,-0.012573853,0.476459198,9.764644318,9.776269745
2.511925667,-0.013771362,0.453556824,9.803862762,9.814358283
2.521977667,-0.031434631,0.430654449,9.827962646,9.837443833
2.532029667,-0.024698639,0.391735382,9.855505371,9.863318547
2.542081667,0.00703537,0.365988922,9.847122803,9.853924339
2.552132667,0.045056305,0.338595886,9.828860779,9.834794429
2.562184667,0.098944244,0.337697754,9.808054047,9.814364672
2.572236667,0.135168915,0.351768494,9.80416214,9.811401886
2.582288667,0.169597321,0.337548065,9.830657043,9.837912373
2.592340667,0.170196075,0.304915924,9.868378601,9.87455501
2.602391667,0.164358215,0.298628998,9.860894165,9.866784007
2.612443667,0.194295959,0.32527359,9.829459534,9.836759047
2.622495667,0.18366806,0.351319427,9.810598755,9.818605157
2.632547667,0.153430939,0.334554291,9.807006226,9.813910471
2.642599667,0.090561676,0.332907715,9.814939728,9.821001518
2.652650667,0.045804749,0.345331879,9.808503113,9.814687234
2.662702667,0.008083191,0.355510712,9.798923035,9.805373315
2.672754667,-0.060623932,0.371976471,9.769584045,9.776850934
2.682806667,-0.170944519,0.385747833,9.740095367,9.749229774
2.692858667,-0.280366974,0.396525421,9.74219101,9.754287453
2.702909667,-0.350570984,0.428858185,9.750423889,9.766144857
2.712961667,-0.329764252,0.520467682,9.749974823,9.769423735
2.723013667,-0.080233154,0.836460571,9.615254974,9.651903018
2.733065667,-0.313897247,0.471220093,9.38757843,9.404637613
2.743117667,-0.484243011,0.289797363,9.609417114,9.625973773
2.753168667,-0.389340363,0.389340363,9.800868988,9.816323383
2.763220417,-0.260009308,0.521216125,9.889185333,9.906324124
2.773272417,-0.185164948,0.499810638,9.941127319,9.955406024
2.783324417,-0.183368683,0.445323944,9.939181366,9.950842362
2.793376417,-0.162711639,0.442629547,9.898016968,9.909244971
2.803427417,-0.149389343,0.412542114,9.857301636,9.867061554
2.813479417,-0.126187592,0.359402618,9.842183075,9.849551321
2.823531417,-0.100890198,0.341290283,9.836195526,9.842631778
2.833583417,-0.041463776,0.305963745,9.830956421,9.835803841
2.843635417,0.029039612,0.277223511,9.818083191,9.822039183
2.853686417,0.127385101,0.267044678,9.823771362,9.828225862
2.863738417,0.179776154,0.262703705,9.809401245,9.814564967
2.873790417,0.203876038,0.216300201,9.781559143,9.786074314
2.883842417,0.196690979,0.19190094,9.781708832,9.785567995
2.893894417,0.188607788,0.242645416,9.772128754,9.776960165
2.903945417,0.196241913,0.28321106,9.768835602,9.774910148
2.913997417,0.170345764,0.295485535,9.744286652,9.750253932
2.924049417,0.153430939,0.31120285,9.759105835,9.765271884
2.934101417,0.159418488,0.350271606,9.749974823,9.757566987
2.944153417,0.114811249,0.361947327,9.751172333,9.758562873
2.954204417,0.042661285,0.399818573,9.750723267,9.75901015
2.964256417,-0.005538483,0.435145111,9.72931778,9.739045456
2.974308417,-0.023052063,0.461939392,9.756411438,9.767368302
2.984360417,-0.038919067,0.458346863,9.762249298,9.773080778
2.994412417,-0.050744476,0.42825943,9.791737976,9.801230215
3.004463417,-0.06556366,0.402812347,9.844877472,9.853332879
3.014515417,-0.102387085,0.360749817,9.863438873,9.870564824
3.024567417,-0.136815491,0.356408844,9.865384827,9.872768787
3.034619417,-0.184117126,0.369282074,9.858948212,9.867579653
3.044671417,-0.216898956,0.382454681,9.851463776,9.861270469
3.054722417,-0.264649658,0.39203476,9.838141479,9.849505493
3.064774417,-0.297281799,0.376018066,9.808503113,9.820208723
3.074826417,-0.28904892,0.376317444,9.782906342,9.794407618
3.084878417,-0.305963745,0.346679077,9.716145172,9.727141266
3.094930417,-0.360899506,0.305215302,9.690548401,9.702068498
3.104982417,-0.358504486,0.295186157,9.725126495,9.736207973
3.115033417,-0.312849426,0.304317169,9.77602066,9.785758205
3.125085417,-0.282462616,0.296383667,9.742789764,9.75138866
3.135137417,-0.255518646,0.300125885,9.762398987,9.77035308
3.145189417,-0.194595337,0.290695496,9.717192993,9.723487588
3.155240417,-0.093256073,0.30776001,9.686955872,9.692292143
3.165292417,-0.013172607,0.333955536,9.697434082,9.703191619
3.175344417,0.035925293,0.323776703,9.642049255,9.647550768
3.185396417,0.063767395,0.348625031,9.600286102,9.606825643
3.195448417,0.083975372,0.386346588,9.620194702,9.628315619
3.205500417,0.069754944,0.414787445,9.624984741,9.63417073
3.215551417,0.035176849,0.426612854,9.612710266,9.622236466
3.225603417,0.060025177,0.450113983,9.627978516,9.638681233
3.235655417,0.087567902,0.454754333,9.617350616,9.628494302
3.245707417,0.099093933,0.429606628,9.605674896,9.615787626
3.255759417,0.109123077,0.383203125,9.606573029,9.614832179
3.265810417,0.114362183,0.365689545,9.628726959,9.636347358
3.275862417,0.12289444,0.347726898,9.662706299,9.669741985
3.285914417,0.114062805,0.357007599,9.617949371,9.625248821
3.295966417,0.080083466,0.329315186,9.619146881,9.62511551
3.306017417,0.009879456,0.278720398,9.610914001,9.61495973
3.316069417,-0.100740509,0.217048645,9.716594238,9.719540234
3.326121417,-0.181123352,0.189356232,9.854158173,9.857641439
3.336173417,-0.242795105,0.211959229,10.03198837,10.03716429
3.346225417,-0.246387634,0.268990631,10.11865814,10.12523113
3.356277417,-0.204923859,0.328417053,10.16027161,10.16764332
3.366328417,-0.172142029,0.301473083,10.13138168,10.13732774
3.376380417,-0.150437164,0.260757751,10.02869522,10.03321254
3.386432417,-0.134121094,0.18726059,9.951455841,9.954121174
3.396484417,-0.145497437,0.087418213,9.904154205,9.905608612
3.406536417,-0.174087982,0.007185059,9.841734009,9.84327621
3.416587417,-0.163460083,-0.03861969,9.757608948,9.759054414
3.426639417,-0.154628448,-0.029338989,9.68710556,9.688384017
3.436691417,-0.175584869,-0.04445755,9.595346375,9.597055724
3.446743417,-0.134869537,-0.004490662,9.545050964,9.546004812
3.456795417,0.19893631,0.339793396,9.498946838,9.507103988
3.466846417,0.020058289,0.019459534,9.51167038,9.511711435
3.476898417,-0.235460358,-0.29368927,9.826914825,9.834121717
3.486950417,-0.243244171,-0.315094757,10.10488678,10.11272413
3.497002417,0.003891907,-0.04445755,10.27149033,10.27158727
3.507054417,0.158969421,0.036374359,10.31879196,10.32008052
3.517105417,0.110619965,-0.044607239,10.32343231,10.32412133
3.527157417,0.089214478,-0.044008484,10.25053391,10.2510166
3.537209417,0.117206268,0.034428406,10.08497818,10.085718
3.547261417,0.116906891,0.107925568,10.00175125,10.00301671
3.557313417,0.069305878,0.156275024,9.908944244,9.910418822
3.567364417,-0.007484436,0.238304443,9.795330505,9.798231715
3.577416417,-0.077838135,0.301173706,9.69997879,9.704965374
3.587468417,-0.149838409,0.341889038,9.609267426,9.616514967
3.597520417,-0.192350006,0.374820557,9.559271393,9.568550493
3.607572417,-0.230969696,0.406853943,9.567204895,9.578636993
3.617623417,-0.232765961,0.445922699,9.579030304,9.592228553
3.627675417,-0.214803314,0.508043518,9.563911743,9.579804618
3.637727417,-0.239801331,0.512085114,9.585167542,9.601831734
3.647779417,-0.294138336,0.504600677,9.6122612,9.629989854
3.657831417,-0.31704071,0.519120483,9.607171783,9.626409017
3.667882417,-0.318387909,0.529449005,9.63097229,9.650767553
3.677934417,-0.344284058,0.520767059,9.664053497,9.684196396
3.687986417,-0.353564758,0.481099548,9.66839447,9.686811469
3.698038417,-0.358354797,0.463585968,9.617799683,9.635631834
3.708090417,-0.366138611,0.456400909,9.624685364,9.64245444
3.718141417,-0.38963974,0.437540131,9.613608398,9.631444696
3.728193417,-0.424966278,0.400716705,9.609566803,9.627302029
3.738245417,-0.465382233,0.362845459,9.654772797,9.672790456
3.748297417,-0.521365814,0.362097015,9.735305328,9.755977983
3.758349417,-0.557141418,0.373323669,9.850715332,9.873518607
3.768399708,-0.537532196,0.386795654,9.959089966,9.981083342
3.778451708,-0.469872894,0.392483826,10.00085312,10.0195752
3.788503708,-0.368234253,0.377514954,9.988279266,10.0021916
3.798555708,-0.233514404,0.357007599,9.927505646,9.936667034
3.808607708,-0.113164673,0.312699738,9.853709106,9.859318969
3.818658708,-0.008532257,0.293838959,9.789941711,9.794354131
3.828710708,0.037272491,0.273331604,9.774823151,9.778714999
3.838762708,0.033380585,0.261206818,9.746382294,9.74993903
3.848814708,-0.015717316,0.263152771,9.757459259,9.761019804
3.858866708,-0.084424438,0.270786896,9.731862488,9.735995096
3.868917708,-0.145946503,0.254321136,9.708361359,9.712788471
3.878969708,-0.17902771,0.250728607,9.70940918,9.714295773
3.889021708,-0.209115143,0.243693237,9.760602722,9.765883526
3.899073708,-0.244142303,0.219443665,9.783205719,9.788711617
3.909125708,-0.269589386,0.186811523,9.802515564,9.808001242
3.919176708,-0.317789154,0.154628448,9.825118561,9.831472659
3.929228708,-0.338745575,0.145647125,9.836345215,9.843253976
3.939280708,-0.348924408,0.183967438,9.842632141,9.850532967
3.949332708,-0.337398376,0.205372925,9.84038681,9.848310935
3.959384708,-0.347277832,0.229023743,9.799671478,9.808497074
3.969435708,-0.344882813,0.277373199,9.759255524,9.769285973
3.979487708,-0.318986664,0.315394135,9.760003967,9.770307231
3.989539708,-0.331710205,0.336500244,9.769284668,9.780704831
3.999591708,-0.343535614,0.359402618,9.765991516,9.778638824
4.009643708,-0.349223785,0.392633514,9.764195251,9.778324357
4.019694708,-0.320932617,0.423768768,9.762099609,9.7765621
4.029746708,-0.28785141,0.445473633,9.806706848,9.821038865
4.039798708,-0.261805573,0.475261688,9.844877472,9.859818876
4.049850708,-0.234711914,0.476459198,9.853858795,9.868162757
4.059902708,-0.224383392,0.476309509,9.855355682,9.869410027
4.069953708,-0.212557983,0.464334412,9.833201752,9.846453373
4.080005708,-0.183518372,0.473615112,9.843081207,9.856177653
4.090057708,-0.181422729,0.446371765,9.837991791,9.849783979
4.100109708,-0.211360474,0.401465149,9.850715332,9.86115815
4.110161708,-0.216898956,0.349972229,9.862091675,9.870682748
4.120213708,-0.216749268,0.331410828,9.837991791,9.845958351
4.130264708,-0.223036194,0.298179932,9.805060272,9.812128381
4.140316708,-0.240400085,0.267044678,9.798473969,9.805059774
4.150368708,-0.245040436,0.229173431,9.798773346,9.804515509
4.160420708,-0.246088257,0.21180954,9.797276459,9.802655187
4.170472708,-0.248183899,0.182769928,9.791887665,9.796737423
4.180523708,-0.254620514,0.158969421,9.78305603,9.787659995
4.190575708,-0.252824249,0.148341522,9.748178558,9.752584812
4.200627708,-0.243094482,0.138761444,9.756561127,9.76057553
4.210679708,-0.254171448,0.136067047,9.742340698,9.746605545
4.220731708,-0.242346039,0.111667786,9.713899841,9.717564068
4.230782708,-0.223634949,0.127983856,9.680519257,9.683947828
4.240834708,-0.195643158,0.148790588,9.650731201,9.653860761
4.250886708,-0.158670044,0.142503662,9.648635559,9.650992261
4.260938708,-0.104033661,0.161963196,9.657317505,9.659235812
4.270990708,-0.056282959,0.170645142,9.62977478,9.631451077
4.281041708,-0.041613464,0.176932068,9.605375519,9.60709506
4.291093708,-0.05493576,0.1778302,9.616602173,9.618403135
4.301145708,-0.046104126,0.206121368,9.602082367,9.604405103
4.311197708,-0.041314087,0.225131836,9.628277893,9.630998203
4.321249708,-0.054337006,0.236059113,9.616003418,9.619053911
4.331300708,-0.054786072,0.258662109,9.534123688,9.537789162
4.341352708,-0.04326004,0.284109192,9.576335907,9.580647101
4.351404708,-0.038919067,0.294587402,9.662706299,9.667274148
4.361456708,-0.099542999,0.25042923,9.761201477,9.764920782
4.371508708,-0.075742493,0.247136078,9.88604187,9.889420459
4.381559708,-0.023052063,0.247734833,10.03004242,10.03312787
4.391611708,-0.019010468,0.211061096,10.18257523,10.18478014
4.401663708,-0.032482452,0.149089966,10.20936951,10.21050972
4.411715708,-0.044607239,0.101488953,10.05983047,10.06044129
4.421767708,0.027692413,0.107775879,9.879605255,9.880231906
4.431818708,0.135617981,0.133222961,9.752818909,9.754671561
4.441870708,0.226928101,0.183967438,9.667496338,9.67190911
4.451922708,0.292342072,0.186212769,9.655670929,9.661890093
4.461974708,0.283809814,0.146844635,9.733808441,9.739052219
4.472026708,0.23052063,0.09714798,9.811646576,9.814834997
4.482077708,0.1977388,0.05029541,9.882449341,9.884555389
4.492129708,0.164807281,0.005688171,9.905052338,9.906424966
4.502181708,0.158220978,-0.001646576,9.921817474,9.923079088
4.512233708,0.169747009,-0.005388794,9.93289444,9.934346231
4.522285708,0.198786621,-0.011825409,9.931846619,9.933842822
4.532336708,0.191002808,-0.031734009,9.989476776,9.991353031
4.542388708,0.154029694,-0.043709106,10.0063916,10.00767248
4.552440708,0.123193817,-0.041463776,9.9679216,9.968769081
4.562492708,0.10298584,-0.0199086,9.937684479,9.938238035
4.572544708,0.077538757,-0.013172607,9.894873505,9.895186075
4.582595708,0.032931519,0.021555176,9.850116577,9.850195211
4.592647708,-0.006137238,0.070653076,9.802814941,9.803071473
4.602699708,0.002844086,0.094004517,9.759255524,9.75970867
4.612751708,-0.010627899,0.103285217,9.761650543,9.762202729
4.622803708,0.01047821,0.112266541,9.725874939,9.726528512
4.632854708,0.026794281,0.133222961,9.670340424,9.671295167
4.642906708,0.079185333,0.150736542,9.625284119,9.626790025
4.652958708,0.1088237,0.191451874,9.586365051,9.588894165
4.663010708,0.131875763,0.205073547,9.590855713,9.59395433
4.673062708,0.08547226,0.205073547,9.630822601,9.633384901
4.683113708,0.023800507,0.197439423,9.671238556,9.673283
4.693165708,-0.027842102,0.182919617,9.70940918,9.711171988
4.703217708,-0.086969147,0.180823975,9.727820892,9.729890043
4.713269708,-0.157173157,0.149688721,9.730066223,9.732486775
4.723321708,-0.185464325,0.125139771,9.739945679,9.742515014
4.733372708,-0.166753235,0.100441132,9.767189026,9.76912875
4.743424708,-0.161663818,0.079784088,9.820777588,9.822432139
4.753476708,-0.116308136,0.0398172,9.921518097,9.922279695
4.763529167,-0.131576385,-0.026195526,10.05429199,10.05518702
4.773581167,-0.160017242,-0.107925568,10.11581406,10.11765524
4.783632167,-0.182919617,-0.17438736,10.12509476,10.12824834
4.793684167,-0.189056854,-0.212557983,10.12180161,10.1257983
4.803736167,-0.188907166,-0.254620514,10.08722351,10.0922047
4.813788167,-0.20477417,-0.262254639,10.01282822,10.0183551
4.823840167,-0.198487244,-0.309556274,9.94921051,9.956003819
4.833892167,-0.126187592,-0.271086273,9.917775879,9.922282472
4.843943167,-0.025147705,-0.188757477,9.888137512,9.889970943
4.853995167,0.086071014,-0.086969147,9.779762878,9.780528299
4.864047167,0.168848877,0.016016693,9.634564819,9.636057583
4.874099167,0.231867828,0.102536774,9.486073608,9.489460943
4.884150167,0.259410553,0.197289734,9.344617767,9.350299369
4.894202167,0.275576935,0.276026001,9.261690216,9.269899603
4.904254167,0.287402344,0.348175964,9.246571655,9.257586834
4.914306167,0.275876312,0.433648224,9.252559204,9.266823099
4.924358167,0.294288025,0.510588226,9.283694458,9.302380801
4.934410167,0.313747559,0.543370056,9.357640686,9.378652769
4.944461167,0.337398376,0.558787994,9.466763763,9.489241162
4.954513167,0.346679077,0.536334686,9.611662445,9.632855041
4.964565167,0.31240036,0.50669632,9.780062256,9.798160688
4.974617167,0.316441956,0.492924957,9.908644867,9.925943463
4.984669167,0.306712189,0.477507019,10.01851639,10.03457801
4.994720167,0.3264711,0.443527679,10.09111542,10.10613232
5.004772167,0.357456665,0.409099274,10.15129028,10.16581683
5.014824167,0.346828766,0.361797638,10.15832565,10.17068178
5.024876167,0.334404602,0.289647675,10.17149826,10.18111482
5.034928167,0.290994873,0.233664093,10.15667908,10.16353318
5.044979167,0.231269073,0.182470551,10.13123199,10.13551393
5.055031167,0.150437164,0.138312378,10.08318192,10.08525256
5.065083167,0.083675995,0.106129303,10.00803818,10.00895066
5.075135167,0.045804749,0.080083466,9.938133545,9.938561757
5.085187167,-0.000449066,0.075892181,9.852062531,9.852354842
5.095238167,-0.061522064,0.044607239,9.810449066,9.810743379
5.105290167,-0.115260315,0.039218445,9.760752411,9.761511699
5.115342167,-0.158370667,0.059426422,9.714498596,9.715971168
5.125394167,-0.197888489,0.060025177,9.652826843,9.655041633
5.135446167,-0.204175415,0.067659302,9.627529449,9.629931915
5.145497167,-0.22109024,0.07020401,9.592053223,9.594857713
5.155549167,-0.223185883,0.066910858,9.632469177,9.635286786
5.165601167,-0.255219269,0.040415955,9.703721008,9.707160848
5.175653167,-0.252674561,0.025297394,9.869276733,9.872543119
5.185705167,-0.251477051,-0.002993774,10.0767453,10.07988321
5.195756167,-0.211659851,-0.001047821,10.25203079,10.25421554
5.205808167,-0.136216736,0.017214203,10.34917877,10.3500895
5.215860167,-0.049546967,0.053289185,10.3342099,10.33446607
5.225912167,-0.024399261,0.10762619,10.26505371,10.26564691
5.235964167,-0.039368134,0.140258331,10.06447083,10.06552509
5.246015167,-0.099393311,0.164358215,9.810449066,9.812329159
5.256067167,-0.139958954,0.216898956,9.583670654,9.587146441
5.266119167,-0.168699188,0.290695496,9.362430725,9.36846158
5.276171167,-0.179626465,0.347427521,9.215735779,9.224031521
5.286223167,-0.122445374,0.425115967,9.149423676,9.160112993
5.296274167,-0.076940002,0.453407135,9.128916321,9.140492929
5.306326167,-0.10762619,0.440384216,9.144334259,9.155565012
5.316378167,-0.131576385,0.425115967,9.198222198,9.208980809
5.326430167,-0.1778302,0.415984955,9.26707901,9.278115134
5.336482167,-0.224832458,0.416134644,9.343719635,9.355683529
5.346533167,-0.221688995,0.429007874,9.408983917,9.421367848
5.356585167,-0.226628723,0.451161804,9.435179443,9.448678145
5.366637167,-0.210761719,0.451760559,9.460925903,9.474050193
5.376689167,-0.185464325,0.437390442,9.538614349,9.550438268
5.386741167,-0.154927826,0.421373749,9.660161591,9.670588422
5.396792167,-0.099842377,0.380508728,9.787546692,9.795449231
5.406844167,-0.045505371,0.340242462,9.924212494,9.930147496
5.416896167,0.013322296,0.311352539,10.0568367,10.06166399
5.426948167,0.05493576,0.304616547,10.1337767,10.13850282
5.437000167,0.080831909,0.269589386,10.15817596,10.16207416
5.447051167,0.085921326,0.246537323,10.15009277,10.15344998
5.457103167,0.090861053,0.232167206,10.1285376,10.13160556
5.467155167,0.063617706,0.203726349,10.10892838,10.11118116
5.477207167,0.032931519,0.195942535,10.05204666,10.05401015
5.487259167,0.001945953,0.191751251,10.00624191,10.00807921
5.497310167,-0.038919067,0.190254364,9.931098175,9.932996646
5.507362167,-0.074245605,0.171094208,9.853559418,9.85532439
5.517414167,-0.098495178,0.161364441,9.788444824,9.790270265
5.527466167,-0.117505646,0.155825958,9.717642059,9.719601664
5.537518167,-0.130378876,0.144898682,9.67423233,9.676195816
5.547569167,-0.132324829,0.137713623,9.654024353,9.655913272
5.557621167,-0.12169693,0.144898682,9.672885132,9.674735787
5.567673167,-0.118104401,0.160765686,9.667795715,9.669853579
5.577725167,-0.122744751,0.166603546,9.678273926,9.680486
5.587777167,-0.110619965,0.188308411,9.685458984,9.687920962
5.597828167,-0.064216461,0.223335571,9.696236572,9.699020889
5.607880167,-0.028889923,0.238454132,9.726174316,9.72913983
5.617932167,0.014819183,0.230071564,9.738897858,9.741626354
5.627984167,0.05029541,0.234113159,9.788594513,9.791522922
5.638036167,0.093705139,0.213156738,9.91418335,9.91691726
5.648087167,0.141156464,0.223185883,9.992620239,9.99610906
5.658139167,0.167801056,0.204923859,9.988428955,9.99193995
5.668191167,0.21300705,0.211959229,9.976453857,9.980978423
5.678243167,0.259410553,0.215701447,9.943821716,9.94954327
5.688295167,0.266894989,0.207917633,9.901160431,9.90693901
5.698346167,0.275277557,0.203127594,9.846973114,9.852914191
5.708398167,0.293389893,0.205372925,9.796827393,9.803370983
5.718450167,0.291893005,0.216150513,9.748777313,9.755541075
5.728502167,0.285306702,0.202079773,9.741442566,9.747714574
5.738554167,0.247585144,0.169148254,9.745035095,9.749647098
5.748606167,0.227526855,0.158220978,9.793983307,9.797903417
5.758657167,0.198487244,0.163609772,9.756860504,9.760250624
5.768708958,0.192799072,0.162711639,9.708511047,9.711788369
5.778760958,0.186512146,0.180823975,9.713450775,9.716923899
5.788812958,0.152981873,0.177231445,9.653724976,9.656563589
5.798864958,0.105680237,0.184566193,9.633666687,9.636014053
5.808915958,0.029638367,0.169747009,9.651629333,9.653167422
5.818967958,-0.011076965,0.167202301,9.70821167,9.709657725
5.829019958,-0.020207977,0.173339539,9.742789764,9.744352588
5.839071958,-0.024399261,0.172591095,9.760453033,9.762009344
5.849123958,-0.013921051,0.174537048,9.774823151,9.776391185
5.859174958,-0.002245331,0.165406036,9.807904358,9.809299266
5.869226958,-0.008083191,0.168848877,9.920320587,9.921760722
5.879278958,-0.003143463,0.185913391,9.988878021,9.99060848
5.889330958,-0.010927277,0.199984131,10.03483246,10.03683095
5.899382958,-0.001347198,0.247285767,10.02929398,10.03234219
5.909433958,-0.019309845,0.289497986,10.04426285,10.04845252
5.919485958,-0.022303619,0.348026276,10.06147705,10.06751907
5.929537958,-0.029488678,0.400716705,10.05653732,10.06456091
5.939589958,-0.037272491,0.469573517,10.0595311,10.07055383
5.949641958,-0.077688446,0.531095581,10.11356873,10.12780185
5.959692958,-0.097597046,0.579744415,10.27598099,10.29278456
5.969744958,-0.105680237,0.701441345,10.54631882,10.57014801
5.979796958,-0.106278992,0.845142517,10.93251572,10.96564914
5.989848958,-0.110320587,0.987945557,11.3441597,11.38763216
5.999900958,-0.185763702,1.104852448,11.87001617,11.92277195
6.009951958,-0.300125885,1.190923462,12.58702515,12.64680103
6.020003958,-0.290246429,1.252894592,13.57392288,13.63471196
6.030055958,-0.137563934,1.336420898,14.76245132,14.82345823
6.040107958,0.00464035,1.430724792,15.99468887,16.05855121
6.050159958,0.36149826,1.709594879,17.13621506,17.22507655
6.060210958,0.661324768,1.556762695,18.10380295,18.18264397
6.070262958,0.985550537,1.224453735,19.68062393,19.7432914
6.080314958,1.624871063,1.303788757,20.81631226,20.9202994
6.090366958,2.312690735,1.497935028,20.79535583,20.97711067
6.100418958,2.423460388,1.41231308,20.18103333,20.37503115
6.110469958,2.080822906,1.286873932,18.79461639,18.95319165
6.120521958,1.309177551,1.056502991,17.62629593,17.70639581
6.130573958,0.757275238,0.828078003,16.27116394,16.30981162
6.140625958,0.468226318,0.646206207,15.12275208,15.14379241
6.150677958,0.359701996,0.428558807,14.80930389,14.81986943
6.160728958,0.241447906,0.098794556,15.09565842,15.09791245
6.170780958,0.272433472,-0.440982971,15.26615387,15.27495139
6.180832958,0.312550049,-0.746198273,15.50640427,15.52749409
6.190884958,0.576002197,-0.871487732,15.38530609,15.42072997
6.200936958,0.641416168,-1.059646454,14.73011856,14.78210601
6.210987958,0.615220642,-1.152603149,13.72211472,13.78417291
6.221039958,0.576600952,-1.079405365,12.53089188,12.59050578
6.231091958,0.366887054,-0.918190613,11.19072876,11.23432643
6.241143958,0.073197784,-0.753982086,9.801617432,9.830846921
6.251195958,-0.24803421,-0.547860718,8.319100342,8.340809483
6.261246958,-0.605939941,-0.341589661,6.896309052,6.931300401
6.271298958,-0.762664032,-0.200433197,5.705984344,5.760215901
6.281350958,-0.658480682,-0.037871246,4.686604156,4.732788772
6.291402958,-0.494421844,0.251177673,4.03680542,4.074719767
6.301454958,-0.263452148,0.591120758,3.846850433,3.900908746
6.311505958,0.010328522,0.950972443,4.08246048,4.19177037
6.321557958,0.180823975,1.177301788,4.449646912,4.606310286
6.331609958,0.242046661,1.138682098,4.881199493,5.018096452
6.341661958,0.102237396,0.856668549,5.06411911,5.137084372
6.351713958,-0.034278717,0.927471313,5.36484375,5.444531801
6.361764958,-0.082179108,1.074615326,5.31799118,5.426101888
6.371816958,-0.237256622,1.238973541,5.066214752,5.220907781
6.381868958,-0.39667511,1.279090118,5.073699188,5.247460922
6.391920958,-0.401016083,1.513652344,5.632936249,5.846531288
6.401972958,-0.117505646,1.998643799,6.360722809,6.66837156
6.412023958,0.131426697,2.224075012,6.78299469,7.139523766
6.422075958,0.117206268,2.202370148,6.968309326,7.30900174
6.432127958,-0.053588562,2.045496368,7.219037933,7.50342827
6.442179958,-0.188757477,1.911225586,7.598349152,7.837303264
6.452231958,-0.315394135,1.894610138,7.853418732,8.084875188
6.462282958,-0.508193207,1.864971771,7.787855072,8.0241552
6.472334958,-0.839454346,1.67905838,7.515870667,7.746756258
6.482386958,-1.228195953,1.388063507,7.404801636,7.633234758
6.492438958,-1.55975647,1.065634003,7.400460663,7.637750591
6.502490958,-1.804048462,0.653540955,7.4172258,7.661393163
6.512541958,-1.657652893,0.458047485,7.514972534,7.709243335
6.522593958,-1.225501556,0.321231995,7.494016113,7.600350095
6.532645958,-0.592617645,0.276475067,7.31184494,7.341029258
6.542697958,0.26330246,0.318687286,6.893914032,6.906297159
6.552749958,1.100212097,0.37437149,6.122268677,6.231596459
6.562801958,1.767225037,0.363294525,5.092110901,5.402282913
6.572852958,2.05582489,0.187110901,3.86361557,4.380519574
6.582904958,1.975741425,-0.121547241,2.703378296,3.350609216
6.592956958,1.911075897,-0.156275024,1.748813324,2.595184196
6.603008958,1.641187134,-0.078287201,0.964294739,1.905121633
6.613059958,1.100661163,-0.093854828,0.276475067,1.138728321
6.623111958,0.721649323,0.119152222,0.304466858,0.792259468
6.633163958,0.396375732,0.305215302,0.178129578,0.531036955
6.643215958,0.536783752,0.71371582,0.265847168,0.931773463
6.653267958,0.687520294,1.086291046,0.380508728,1.340708501
6.663319958,0.776285706,1.416354675,0.44113266,1.674299282
6.673370958,0.78631485,1.814526672,0.526754608,2.04652596
6.683422958,0.915645905,2.241139526,0.614023132,2.497626515
6.693474958,1.178648987,2.65143631,0.694705353,2.983612486
6.703526958,1.502126312,3.081342316,0.755628662,3.510274718
6.713578958,1.817221069,3.467090149,0.72898407,3.981761456
6.723629958,2.034868469,3.787274323,0.747246094,4.363772818
6.733681958,2.190694427,4.110601959,0.790356445,4.72449509
6.743733958,2.42795105,4.485422516,0.924028473,5.183414904
6.753785958,2.307152252,4.425696716,1.127455444,5.116727345
6.763838667,1.634451141,3.682192841,1.301842804,4.233765385
6.773889667,0.762364655,2.73331604,1.495989075,3.207834122
6.783941667,0.031284943,2.097138977,1.962119751,2.872087142
6.793993667,-0.346080322,1.51529892,3.003803558,3.382120374
6.804045667,-0.778231659,0.991837463,3.576662292,3.792347455
6.814097667,-1.444346466,0.474962311,4.293222198,4.554501373
6.824148667,-1.602567444,0.003742218,5.33909729,5.574423404
6.834200667,-1.273551636,0.291593628,6.670578461,6.797321356
6.844252667,-0.919238434,0.308508453,8.009095001,8.067575813
6.854304667,-0.668360138,0.485440521,8.991202698,9.029068818
6.864356667,-0.525257721,0.804127808,9.545350342,9.593551498
6.874407667,-0.675994263,1.005908203,9.838740234,9.913103901
6.884459667,-1.192570038,1.034498749,9.118587799,9.25424521
6.894511667,-1.941313019,0.509989471,8.349936218,8.587794848
6.904563667,-2.516716461,-0.248782654,7.852520599,8.249717227
6.914615667,-2.331701202,-0.793948975,8.003706207,8.374156586
6.924666667,-1.283131714,-0.941841431,9.045839081,9.184807943
6.934718667,0.408201141,-0.490679626,10.51922516,10.53857166
6.944770667,2.054178314,0.169597321,11.96851135,12.14469744
6.954822667,3.119812317,0.814606018,12.71141647,13.11399713
6.964874667,3.940555573,1.660646667,13.43725708,14.10126248
6.974925667,4.184398499,1.933828583,14.79912506,15.50041891
6.984977667,4.013453979,0.912352753,17.35505997,17.83643201
6.995029667,4.035907288,-0.5932164,20.16980667,20.57818152
7.005081667,4.360582123,-1.243314514,21.7247731,22.19293297
7.015133667,5.126239929,-0.733774109,22.34493347,22.93714917
7.025184667,5.572012939,-0.164058838,22.33161118,23.01684386
7.035236667,4.790637817,-0.379909973,21.82266953,22.34554648
7.045288667,3.450325012,-0.885109406,20.53355026,20.84022187
7.055340667,2.038610687,-1.290316772,19.54680222,19.69513462
7.065392667,1.282832336,-0.963995361,19.1781189,19.2451342
7.075443667,0.762364655,-0.395776978,18.99025955,19.00967641
7.085495667,0.474363556,0.066611481,18.63774261,18.64389733
7.095547667,0.19070343,0.29608429,18.00994812,18.01339127
7.105599667,-0.185164948,0.531993713,17.20237747,17.21159766
7.115651667,-0.439186707,0.943188629,15.96744553,16.0013064
7.125702667,-0.571062469,1.396745453,14.57878326,14.65666851
7.135754667,-0.737366638,1.575024719,13.21317307,13.32712853
7.145806667,-0.854572906,1.391656036,11.95159653,12.06265563
7.155858667,-0.819545746,1.012943573,10.78222824,10.86067013
7.165910667,-0.545465698,0.552800446,9.913285217,9.94365853
7.175961667,-0.198337555,0.151634674,9.448950806,9.452248526
7.186013667,0.184117126,-0.138911133,9.233848114,9.236728123
7.196065667,0.490679626,-0.349672852,9.229507141,9.249153457
7.206117667,0.723894653,-0.528700562,9.505383453,9.547557926
7.216169667,0.868344269,-0.718206482,9.787247314,9.851906024
7.226220667,1.029109955,-0.784518585,10.03887405,10.12193307
7.236272667,1.132395172,-0.804726563,10.7416626,10.8311227
7.246324667,1.169368286,-0.908760223,11.24910736,11.34617485
7.256376667,1.159638519,-1.017284546,11.33862122,11.44307478
7.266428667,1.175206146,-1.056053925,11.09852051,11.21042001
7.276479667,1.247954865,-1.013692017,10.74046509,10.86013596
7.286531667,1.305585022,-0.94543396,10.42836411,10.55221188
7.296583667,1.231040039,-0.880019989,10.19874161,10.31039403
7.306635667,1.0577005,-0.874780884,10.05354355,10.14680786
7.316687667,0.824186096,-0.908909912,10.10413834,10.17835996
7.326738667,0.634081421,-0.953816528,10.18841309,10.25258925
7.336790667,0.530197449,-0.975970459,10.19125717,10.25160233
7.346842667,0.557291107,-0.951571198,10.06896149,10.12916811
7.356894667,0.622705078,-0.895437927,9.781259766,9.841880577
7.366946667,0.626147919,-0.82837738,9.386081543,9.443346707
7.376997667,0.539178772,-0.76056839,9.142987061,9.190396641
7.387049667,0.338595886,-0.751736755,9.197473755,9.234353188
7.397101667,0.009280701,-0.825533295,9.372459869,9.408750999
7.407153667,-0.328117676,-0.940943298,9.605824585,9.657375495
7.417205667,-0.580193481,-1.040635986,9.758806458,9.831269054
7.427256667,-0.816402283,-1.169368286,9.797875214,9.901125874
7.437308667,-0.854872284,-1.273701324,9.637857971,9.759171479
7.447360667,-0.810265045,-1.359023895,9.518855438,9.649460308
7.457412667,-0.653091888,-1.401984558,9.467063141,9.592568698
7.467464667,-0.455802155,-1.379381561,9.466314697,9.577137518
7.477515667,-0.258512421,-1.383423157,9.581575012,9.684382686
7.487567667,-0.103883972,-1.383273468,9.774972839,9.872908962
7.497619667,0.027542725,-1.371448059,9.95160553,10.04569963
7.507671667,0.105829926,-1.354233856,10.0740509,10.1652177
7.517723667,0.148491211,-1.326391754,10.13452515,10.22203329
7.527774667,0.17438736,-1.288969574,10.09545639,10.17890432
7.537826667,0.254321136,-1.244512024,10.02674927,10.10688826
7.547878667,0.380808105,-1.15604599,9.957593079,10.03170559
7.557930667,0.563877411,-1.033301239,9.808952179,9.87933257
7.567982667,0.68452652,-0.91145462,9.618398438,9.685706716
7.578033667,0.845292206,-0.793200531,9.350455627,9.422033031
7.588085667,0.96414505,-0.683478699,9.122779083,9.199011741
7.598137667,1.018781433,-0.60608963,8.962761841,9.040816338
7.608189667,1.004261627,-0.551902313,8.942254486,9.015378687
7.618241667,0.963097229,-0.514629822,9.1570578,9.221936222
7.628292667,0.861608276,-0.561183014,9.438771973,9.494614871
7.638344667,0.806822205,-0.691262512,9.701026611,9.759032905
7.648396667,0.826581116,-0.689765625,9.987530823,10.04538625
7.658448667,0.743354187,-0.835712128,10.1842218,10.24545577
7.668500667,0.52885025,-1.169068909,10.47940796,10.55767
7.678551667,0.332907715,-1.449286194,10.72145462,10.82408644
7.688603667,0.214953003,-1.580563202,10.94928085,11.06486042
7.698655667,0.155227203,-1.617536316,11.16692825,11.28453835
7.708707667,0.128881989,-1.678459625,11.32814301,11.45253951
7.718759667,0.077838135,-1.709594879,11.42933258,11.55674767
7.728810667,0.055833893,-1.698817291,11.53621033,11.66075668
7.738862667,0.110619965,-1.643133087,11.64428558,11.76016623
7.748914667,-0.002844086,-1.599873047,11.6984729,11.80736508
7.758966667,-0.085172882,-1.685345306,11.53501282,11.65779413
7.769018542,-0.216150513,-1.670077057,11.2989537,11.4237574
7.779069542,-0.361797638,-1.57966507,11.09223358,11.20999041
7.789121542,-0.423768768,-1.495540009,10.75812836,10.8698457
7.799173542,-0.374970245,-1.363364868,10.30337402,10.39994628
7.809225542,-0.315693512,-1.268611908,9.902807007,9.988724903
7.819277542,-0.253123627,-1.148860931,9.599837036,9.671650538
7.829328542,-0.201930084,-1.010698242,9.522447968,9.578063582
7.839380542,-0.261506195,-0.739611969,9.458830261,9.491305562
7.849432542,-0.336350555,-0.154329071,9.539961548,9.547136507
7.859484542,-0.365839233,0.314496002,9.628577271,9.640655908
7.869536542,-0.410296783,0.360600128,9.472002869,9.487740208
7.879587542,-0.37437149,0.073197784,9.151369629,9.15931646
7.889639542,-0.376317444,-0.383053436,8.680598602,8.697191319
7.899691542,-0.341290283,-1.180744629,8.044122162,8.137477391
7.909743542,-0.268391876,-1.931732941,7.696395264,7.939655308
7.919795542,-0.065863037,-2.265089722,7.605983276,7.936368879
7.929846542,0.219892731,-2.292033691,7.624095612,7.964207754
7.939898542,0.612077179,-1.970352631,7.846383362,8.11311653
7.949950542,0.912053375,-1.551224213,8.159083099,8.355164567
7.960002542,0.86235672,-1.203647003,8.436605988,8.565555779
7.970054542,0.554746399,-1.096020813,8.552614746,8.640383336
7.980105542,0.035176849,-1.187181244,8.633895721,8.715204647
7.990157542,-0.511186981,-1.373244324,8.789571991,8.910874698
8.000209542,-0.915346527,-1.514849854,8.813971252,8.989923169
8.010261542,-1.165925446,-1.48715744,8.935219116,9.132861548
8.020313542,-1.288370819,-1.35378479,9.23549469,9.422685116
8.030364542,-1.288520508,-1.150058441,9.60986618,9.763833649
8.040416542,-1.221909027,-0.889899445,10.07884094,10.191566
8.050468542,-1.328188019,-0.856069794,10.52850586,10.64642543
8.060520542,-1.416204987,-1.154249725,10.70304291,10.8578569
8.070572542,-1.568588104,-1.503174133,10.86186264,11.07700596
8.080623542,-1.768272858,-1.631906433,11.3586795,11.61074966
8.090675542,-1.86392395,-1.699865112,11.96731384,12.23030476
8.100727542,-1.811383209,-1.425036621,13.13488586,13.33555643
8.110779542,-1.798809357,-0.877175903,15.18143005,15.3127715
8.120831542,-2.020049286,-0.402363281,17.604142,17.72422948
8.130882542,-2.057621155,-0.291144562,19.31703003,19.42848988
8.140934542,-1.979932709,-0.539029083,20.16172348,20.26587722
8.150986542,-1.48251709,-0.36973114,19.71909393,19.77820072
8.161038542,-1.496138763,-1.103804626,18.36081848,18.45471406
8.171090542,-2.20207077,-1.720222778,16.86602692,17.09593946
8.181141542,-2.464624786,-3.276386719,14.75661346,15.31557136
8.191193542,-2.63736557,-4.51775528,13.45117813,14.43260209
8.201245542,-2.141446838,-4.954247589,13.46405136,14.50555214
8.211297542,-0.006735992,-3.460204468,14.21054901,14.62575685
8.221349542,2.628384247,-1.298549652,14.7389502,15.02768405
8.231400542,4.159101105,-0.121397552,14.67218903,15.25077015
8.241452542,4.600982208,0.137114868,15.20029083,15.88196081
8.251504542,3.73488327,-0.461490326,15.60295349,16.05037333
8.261556542,2.547552338,-0.816851349,15.81206863,16.03679468
8.271608542,2.105371857,-0.487835541,16.08390335,16.2284479
8.281659542,1.627266083,-0.337548065,15.60489944,15.69314565
8.291711542,1.140927429,-0.181722107,15.35237457,15.3957833
8.301763542,0.650996246,-1.095871124,14.96662674,15.02080709
8.311815542,-0.126636658,-2.022294617,13.58844269,13.73868578
8.321867542,0.033530273,-1.620081024,16.19242767,16.27330639
8.331918542,1.330283661,-0.084125061,18.7030069,18.75044529
8.341970542,1.246457977,0.640518036,17.6385704,17.69415403
8.352022542,-0.169747009,0.230221252,17.04954529,17.05194448
8.362074542,-0.881516876,-0.481099548,16.46785492,16.49844764
8.372126542,-0.891396332,-0.972677307,15.1410141,15.19838796
8.382177542,-0.817300415,-1.054706726,13.64233063,13.70742759
8.392229542,-0.646056519,-0.934057617,12.31743576,12.36968376
8.402281542,-0.7020401,-0.88570816,10.97368011,11.03172672
8.412333542,-1.076112213,-0.797391815,9.39925415,9.494199797
8.422385542,-1.179247742,-0.360600128,7.914940796,8.010427298
8.432436542,-0.946930847,0.20941452,6.668931885,6.73907894
8.442488542,-0.74305481,0.808768158,5.50525177,5.613736139
8.452540542,-0.599503326,1.394649811,4.263134766,4.525347541
8.462592542,-0.315992889,1.568438416,3.369343414,3.729923004
8.472644542,0.076940002,1.573228455,2.671195221,3.101008133
8.482695542,0.63887146,1.451980591,2.618355103,3.061402917
8.492747542,1.392853546,1.453028412,3.382516022,3.936082723
8.502799542,1.937121735,1.561253357,4.414320374,5.067166567
8.512851542,1.863325195,1.424437866,5.188061371,5.693591556
8.522903542,1.923350372,1.510359192,5.767207031,6.264274777
8.532954542,1.817670135,1.892514496,6.122118988,6.660771483
8.543006542,1.39240448,1.698667603,5.81420929,6.215246698
8.553058542,0.98749649,1.181642761,5.102888489,5.330187601
8.563110542,0.701890411,0.829724579,4.328997803,4.463330035
8.573162542,0.513282623,0.581390991,3.653153229,3.734568656
8.583213542,0.345631256,0.491577759,3.172652435,3.22906072
8.593265542,0.16031662,0.449814606,2.758463745,2.799492245
8.603317542,0.074095917,0.260009308,2.297123108,2.312978517
8.613369542,-0.005239105,0.249381409,2.01600769,2.031380206
8.623421542,-0.15567627,0.416883087,1.822160797,1.875712286
8.633472542,-0.471968536,0.487536163,1.573677521,1.713740572
8.643524542,-0.755329285,0.527952118,1.214274902,1.524375054
8.653576542,-0.727187805,0.853674774,1.175804901,1.624832265
8.663628542,-0.588126984,1.401834869,1.397493896,2.06495122
8.673680542,-0.27378067,1.866618347,1.823058929,2.623502195
8.683731542,0.118104401,2.026186523,2.452200623,3.183185255
8.693783542,0.256716156,2.03007843,2.90411087,3.552602084
8.703835542,0.397722931,2.001338196,3.100801849,3.711941569
8.713887542,0.559386749,2.055226135,3.07146286,3.737746929
8.723939542,0.647852783,2.238295441,3.029100952,3.821666166
8.733990542,0.678389282,2.423759766,3.128643951,4.015375
8.744042542,0.658330994,2.494263153,3.170407104,4.08732548
8.754094542,0.624351654,2.464924164,3.231480103,4.111949632
8.764146167,0.751736755,2.384990387,3.240760803,4.093387091
8.774198167,0.90801178,2.541714478,3.342998199,4.296560815
8.784249167,1.022523651,2.698438568,3.315156097,4.39515475
8.794301167,1.07880661,2.78480896,3.187471619,4.367946882
8.804353167,1.122515717,2.949915619,3.219804382,4.508789633
8.814405167,1.24735611,3.237467651,3.655697937,5.039962447
8.824457167,1.115630035,3.176843719,4.028123474,5.250023344
8.834508167,0.567919006,2.728226624,4.325405273,5.145374941
8.844560167,-0.064665527,2.323318634,4.805457001,5.33801537
8.854612167,-0.203277283,2.238295441,5.171445923,5.638718034
8.864664167,0.098644867,2.402803345,4.818330231,5.38511847
8.874716167,0.427510986,2.696642303,3.741319885,4.63164332
8.884767167,0.540226593,2.991828461,2.696342926,4.063637224
8.894819167,0.634380798,3.240910492,1.89670578,3.808337253
8.904871167,0.684676208,3.484004974,1.517843628,3.861466231
8.914923167,0.51253418,3.496129761,1.516047363,3.844998595
8.924974167,0.484243011,3.476670227,1.645528107,3.876788608
8.935026167,0.383053436,3.413202209,1.758393402,3.858578315
8.945078167,0.300874329,3.451372833,2.152823181,4.078865951
8.955130167,0.516575775,3.452121277,2.813100128,4.483026229
8.965182167,0.301772461,2.953657837,3.16861084,4.342263913
8.975233167,-0.18606308,2.153871002,3.266806641,3.917372256
8.985285167,-0.522114258,1.609453125,3.564687195,3.945876006
8.995337167,-0.650098114,1.213676147,3.850293274,4.089058039
9.005389167,-0.775686951,0.777782593,3.927233276,4.077964837
9.015441167,-1.121617584,0.324674835,4.099375305,4.262430955
9.025492167,-1.439556427,-0.077538757,4.508175201,4.733072851
9.035544167,-1.567989349,-0.374820557,4.991520081,5.24541264
9.045596167,-1.456022186,-0.558488617,5.608387299,5.821161244
9.055648167,-1.166823578,-0.664468231,6.326294403,6.467224765
9.065700167,-0.896635437,-0.640368347,7.148534546,7.232950496
9.075751167,-0.758023682,-0.671054535,7.44297226,7.511507848
9.085803167,-0.850830688,-0.823437653,6.874604187,6.975825769
9.095855167,-0.981209564,-0.851130066,6.66593811,6.791312501
9.105907167,-1.211281128,-0.756526794,7.22412735,7.363935818
9.115959167,-1.514251099,-0.819695435,8.540639648,8.712484296
9.126010167,-1.058448944,-1.321751404,11.08654541,11.21511614
9.136062167,0.374970245,-1.945055237,14.00008667,14.13952861
9.146114167,1.150507507,-1.013692017,16.06115067,16.1341811
9.156166167,1.751358032,-0.58737854,17.8788208,17.97399515
9.166218167,1.664239197,-0.829874268,16.50348083,16.60792772
9.176269167,-1.189725952,-0.903970184,16.56410477,16.63136124
9.186321167,-3.59687027,-0.496367798,18.24346252,18.60128441
9.196373167,-4.362827454,0.883762207,21.39710449,21.85523689
9.206425167,-2.995121613,2.024090881,25.13034119,25.38900836
9.216477167,-0.991388397,2.781066742,27.01971222,27.18054509
9.226528167,0.330512695,2.230960693,26.98618195,27.08025924
9.236580167,0.733325043,1.046623535,25.81381989,25.84543448
9.246632167,1.044976959,0.071102142,24.07593384,24.09870583
9.256684167,1.73294632,-0.429157562,22.04645416,22.11862157
9.266736167,2.550546112,-0.479602661,20.72575058,20.88760497
9.276787167,3.684138794,-0.484692078,20.22683807,20.56532965
9.286839167,5.006488953,-0.67868866,19.51806198,20.16135644
9.296891167,5.81765213,-0.597407684,18.36096817,19.26985014
9.306943167,5.971981201,-0.181722107,17.28755035,18.29089882
9.316995167,5.35436554,0.173788605,15.90951599,16.787261
9.327046167,4.024530945,0.072898407,14.20501053,14.76429774
9.337098167,2.73571106,-0.070503387,12.53089188,12.82623627
9.347150167,1.432670746,-0.071551208,11.38427628,11.4742935
9.357202167,-0.219593353,-0.128582611,10.21116577,10.21433606
9.367254167,-1.259181519,0.373024292,9.222322083,9.315358813
9.377305167,-1.962718506,1.129251709,9.045689392,9.324804016
9.387357167,-1.823657684,1.632505188,8.430618439,8.77873156
9.397409167,-0.508342896,0.949625244,6.574478302,6.662129205
9.407461167,-0.088166656,0.066312103,4.419858856,4.421235457
9.417513167,-0.137563934,-0.490080872,4.103416901,4.134867998
9.427564167,0.013771362,-0.042810974,3.77934082,3.779608375
9.437616167,-0.595910797,0.984951782,4.856051788,4.990639104
9.447668167,-1.371148682,1.268462219,6.982529755,7.228054156
9.457720167,-1.67561554,0.719853058,8.766070862,8.953763132
9.467772167,-2.136656799,0.443377991,10.15593063,10.38772417
9.477823167,-2.4724086,0.792751465,11.14492401,11.44336447
9.487875167,-2.132166138,1.139430542,11.22351059,11.48092437
9.497927167,-1.98217804,1.250349884,11.33472931,11.57447593
9.507979167,-1.952689362,1.426832886,12.33899094,12.57376416
9.518031167,-1.321152649,1.742376709,12.82532959,13.01039584
9.528082167,-0.677191772,2.057621155,12.09050766,12.28302768
9.538134167,-0.383652191,2.074835358,10.89389603,11.09635532
9.548186167,-0.469423828,1.808239746,9.92585907,10.10013703
9.558238167,-0.681981812,1.710493011,9.371711426,9.550908888
9.568290167,-0.840801544,1.717528381,9.145980835,9.343758152
9.578341167,-0.910257111,1.632804565,9.239087219,9.426311654
9.588393167,-1.081950073,1.4438974,9.607171783,9.775131986
9.598445167,-1.250050507,1.154399414,10.17673737,10.31800599
9.608497167,-1.351389771,0.898282013,10.9247319,11.04458836
9.618549167,-1.549128571,0.724044342,11.28144012,11.41029933
9.628600167,-1.727258148,0.549806671,11.48636398,11.6285109
9.638652167,-1.562750244,0.468525696,11.38098312,11.49732497
9.648704167,-1.302591248,0.454904022,11.0801088,11.1656837
9.658756167,-0.895737305,0.435145111,10.81231567,10.85807841
9.668808167,-0.417332153,0.435743866,10.26101212,10.27873574
9.678859167,-0.066611481,0.421523438,9.607770538,9.617243566
9.688911167,0.191601563,0.33814682,9.140442352,9.148701592
9.698963167,0.347876587,0.223784637,8.832682343,8.842362526
9.709015167,0.392932892,0.19654129,8.643176422,8.654335526
9.719067167,0.20357666,0.148940277,8.629105682,8.632791642
9.729118167,0.023501129,0.275277557,8.837472382,8.841789872
9.739170167,0.076341248,0.619860992,9.113947449,9.135321217
9.749222167,-0.065264282,0.738414459,9.394314423,9.423516266
9.759274167,-0.270188141,0.682430878,9.874066772,9.901308407
9.769326542,-0.338296509,0.511037292,10.23990601,10.2582298
9.779377542,-0.299078064,0.342487793,10.42866348,10.43857115
9.789429542,-0.327219543,0.322279816,10.54691757,10.55691277
9.799481542,-0.305215302,0.328267365,10.78881454,10.79812183
9.809533542,-0.342038727,0.270637207,10.92113937,10.92984539
9.819584542,-0.266146545,0.338745575,10.66367477,10.67237285
9.829636542,-0.165705414,0.527802429,10.20712418,10.22210436
9.839688542,-0.128432922,0.586630096,9.910740509,9.928917732
9.849740542,-0.233215027,0.449814606,9.715546417,9.728749386
9.859792542,-0.314945068,0.417781219,9.51870575,9.533073517
9.869843542,-0.201181641,0.552501068,9.450298004,9.468572429
9.879895542,-0.112865295,0.519868927,9.493108978,9.508002963
9.889947542,-0.049546967,0.373473358,9.490713959,9.498188706
9.899999542,-0.027093658,0.012274475,9.377399597,9.377446771
9.910051542,0.328117676,0.263003082,9.353599091,9.363046928
9.920102542,0.809366913,0.550255737,9.367220764,9.418210075
9.930154542,0.84364563,0.442030792,9.485175476,9.532873805
9.940206542,0.808917847,0.271535339,9.503736877,9.5419649
9.950258542,0.832868042,0.263452148,9.527687073,9.567648466
9.960310542,0.871637421,0.326920166,9.575886841,9.621030993
9.970361542,0.862656097,0.360300751,9.627828827,9.67311119
9.980413542,0.856967926,0.391735382,9.682315521,9.728056563
9.990465542,0.840951233,0.422271881,9.703421631,9.748943731
10.00051754,0.869092712,0.40131546,9.735305328,9.782256697
10.01056954,0.908909912,0.379760284,9.824220428,9.873481763
10.02062054,0.964743805,0.383652191,9.854307861,9.908849733
10.03067254,1.040935364,0.382903748,9.857451324,9.919652631
10.04072454,1.095571747,0.423768768,9.869127045,9.938788963
10.05077654,1.108594666,0.45161087,9.899513855,9.971625197
10.06082854,1.062041473,0.415236511,9.960287476,10.02535187
10.07087954,1.029109955,0.386496277,9.994715881,10.05498842
10.08093154,1.017883301,0.386945343,10.0170195,10.07603557
10.09098354,1.015338593,0.410446472,9.972561951,10.03251567
10.10103554,0.986298981,0.423319702,9.902956696,9.960950585
10.11108754,0.973575439,0.418679352,9.929152222,9.985549828
10.12113854,0.93495575,0.38844223,9.974807281,10.02605655
10.13119054,0.86475174,0.343236237,9.944869537,9.98829499
10.14124254,0.839154968,0.34278717,9.881700897,9.923189846
10.15129454,0.822240143,0.377215576,9.744586029,9.786486975
10.16134654,0.812809753,0.37437149,9.585766296,9.62744666
10.17139754,0.802331543,0.357306976,9.485325165,9.525901409
10.18144954,0.76880127,0.336051178,9.525890808,9.562770596
10.19150154,0.706081696,0.291144562,9.594897308,9.625246536
10.20155354,0.649649048,0.245339813,9.597142639,9.62223375
10.21160554,0.650996246,0.249680786,9.55373291,9.579141356
10.22165654,0.685274963,0.270786896,9.42619812,9.45495311
10.23170854,0.709374847,0.309107208,9.261390839,9.293660216
10.24176054,0.722547455,0.324375458,9.221124573,9.255076048
10.25181254,0.693956909,0.321381683,9.235943756,9.267551966
10.26186454,0.616418152,0.291743317,9.239835663,9.264968892
10.27191554,0.550255737,0.228724365,9.180109863,9.199430054
10.28196754,0.568817139,0.216300201,9.051976318,9.072409492
10.29201954,0.643362122,0.304616547,9.031618652,9.059627009
10.30207154,0.616118774,0.383652191,9.256002045,9.284415178
10.31212354,0.506247253,0.390687561,9.528585205,9.550018799
10.32217454,0.365689545,0.390986938,9.842931519,9.85747942
10.33222654,0.275726624,0.386795654,10.16311569,10.17421037
10.34227854,0.215402069,0.375868378,10.47431854,10.48327354
10.35233054,0.221988373,0.341889038,10.67415298,10.68193376
10.36238154,0.2667453,0.284109192,10.79704742,10.80407813
10.37243354,0.390537872,0.170345764,10.82009949,10.82848514
10.38248554,0.524359589,0.050744476,10.68972061,10.70269381
10.39253754,0.692759399,-0.022752686,10.45306274,10.47601804
10.40258954,0.840352478,-0.043709106,10.13632141,10.17119042
10.41264054,0.889001312,-0.051043854,9.813592529,9.853909231
10.42269254,0.879121857,-0.044307861,9.583970032,9.624307767
10.43274454,0.842298431,-0.037122803,9.511071625,9.548367829
10.44279654,0.814007263,-0.041014709,9.531728668,9.566511456
10.45284854,0.766855316,-0.060324554,9.579928436,9.610761415
10.46289954,0.746198273,-0.094603271,9.621242523,9.650599429
10.47295154,0.817001038,-0.151335297,9.665101318,9.70075134
10.48300354,0.866548004,-0.221539307,9.691596222,9.732780817
10.49305554,0.908161469,-0.244890747,9.753118286,9.798369509
10.50310754,0.932411041,-0.232765961,9.77257782,9.819717287
10.51315854,0.927770691,-0.187559967,9.733509064,9.779424108
10.52321054,0.940494232,-0.172890472,9.66375412,9.710950736
10.53326254,0.925076294,-0.13921051,9.603279877,9.648737229
10.54331454,0.901126099,-0.139958954,9.625284119,9.668387204
10.55336654,0.869691467,-0.131127319,9.707762604,9.747523398
10.56341754,0.851429443,-0.103734283,9.788744202,9.826250859
10.57346954,0.795595551,-0.097746735,9.825867004,9.858508462
10.58352154,0.752036133,-0.117355957,9.855804749,9.88515139
10.59357354,0.71955368,-0.114511871,9.891131287,9.917930661
10.60362554,0.666713562,-0.088765411,9.95504837,9.97774395
10.61367654,0.664767609,-0.038320313,9.950707397,9.972961553
10.62372854,0.654588776,0.02110611,9.911189575,9.932804777
10.63378054,0.634380798,0.08427475,9.886490936,9.907181449
10.64383254,0.577349396,0.107775879,9.807006226,9.824577297
10.65388454,0.504151611,0.11585907,9.767638092,9.781326396
10.66393554,0.420924683,0.120349731,9.808952179,9.818717049
10.67398754,0.381706238,0.121996307,9.897418213,9.905527247
10.68403954,0.378413086,0.08771759,10.02450394,10.03202721
10.69409154,0.482596436,0.062120819,10.07599686,10.08773865
10.70414354,0.621657257,0.029937744,10.01791763,10.03723207
10.71419454,0.766705627,-0.00464035,9.86493576,9.894686282
10.72424654,0.897383881,-0.078736267,9.771080933,9.812518526
10.73429854,1.017733612,-0.120649109,9.847871246,9.901055802
10.74435054,1.094523926,-0.104632416,9.991273041,10.0515903
10.75440254,1.114881592,-0.110170898,9.917476501,9.980553028
10.76445354,1.097368011,-0.221539307,9.748927002,9.812995155
10.77450458,1.077459412,-0.327818298,9.613907776,9.679649082
10.78455658,1.062340851,-0.384700012,9.50583252,9.572743289
10.79460858,1.078207855,-0.392633514,9.484427032,9.553588299
10.80466058,1.120270386,-0.357756042,9.504335632,9.576815281
10.81471158,1.100062408,-0.362845459,9.544601898,9.614635694
10.82476358,1.064137115,-0.37437149,9.595645752,9.661726513
10.83481558,1.0577005,-0.385747833,9.636211395,9.701757665
10.84486758,1.085991669,-0.362995148,9.690249023,9.757667217
10.85491958,1.113983459,-0.326620789,9.778116302,9.846786212
10.86497058,1.119971008,-0.302820282,9.813293152,9.881637398
10.87502258,1.121168518,-0.274080048,9.837243347,9.904720864
10.88507458,1.128952332,-0.236508179,9.83335144,9.900771184
10.89512658,1.102756805,-0.208666077,9.829609222,9.893474191
10.90517858,1.035696259,-0.166902924,9.818981323,9.874862913
10.91522958,0.964594116,-0.144449615,9.786049805,9.83453498
10.92528158,0.923729095,-0.112715607,9.754166107,9.798455832
10.93533358,0.945284271,-0.044756927,9.715396729,9.761377932
10.94538558,0.947529602,-0.021555176,9.748178558,9.79414428
10.95543658,0.959804077,-0.026195526,9.785001984,9.831997452
10.96548858,0.979862366,-0.019010468,9.745184784,9.794341128
10.97554058,1.028660889,-0.004490662,9.713899841,9.768214449
10.98559258,1.081950073,0.024099884,9.675729218,9.736063509
10.99564458,1.114582214,0.047750702,9.678722992,9.742805161
11.00569558,1.10694809,0.04445755,9.655820618,9.719165723
11.01574758,1.081501007,0.041463776,9.644144897,9.704684151
11.02579958,1.039588165,0.037272491,9.638606415,9.694579228
11.03585158,1.004261627,0.02694397,9.678124237,9.730126214
11.04590358,0.935255127,0.034428406,9.678872681,9.7240148
11.05595458,0.886157227,0.025147705,9.658065948,9.698667171
11.06600658,0.898431702,-0.008831635,9.606872406,9.648795518
11.07605858,0.939895477,0.005987549,9.554331665,9.600452746
11.08611058,0.937799835,-0.006885681,9.539961548,9.585947125
11.09616258,0.912203064,-0.042212219,9.581724701,9.625141274
11.10621358,0.893042908,-0.09011261,9.665849762,9.707435168
11.11626558,0.923878784,-0.132773895,9.782457275,9.826884107
11.12631758,1.02387085,-0.136366425,9.98079483,10.0341005
11.13636958,1.074914703,-0.104782104,10.10413834,10.16169437
11.14642158,1.081351318,-0.110919342,10.01058289,10.06942866
11.15647258,0.954415283,-0.11585907,9.7609021,9.808136503
11.16652458,0.79215271,-0.083825684,9.532327423,9.565552716
11.17657658,0.734372864,-0.007634125,9.365274811,9.39402651
11.18662858,0.816102905,0.024998016,9.316925354,9.352633154
11.19668058,0.957259369,0.023201752,9.405690765,9.454306035
11.20673158,1.053958282,-0.003592529,9.613159332,9.670763843
11.21678358,1.123114471,-0.070503387,9.8590979,9.923112831
11.22683558,1.197958832,-0.145647125,9.974657593,10.04739332
11.23688758,1.280137939,-0.226479034,9.988279266,10.07252543
11.24693958,1.343605957,-0.252824249,9.906399536,10.00029744
11.25699058,1.417552185,-0.243842926,9.823471985,9.928218139
11.26704258,1.492097168,-0.225580902,9.711355133,9.827902076
11.27709458,1.538949738,-0.230670319,9.62633194,9.751299488
11.28714658,1.553020477,-0.247285767,9.620194702,9.747880229
11.29719858,1.53865036,-0.269888763,9.697134705,9.822153855
11.30724958,1.485211487,-0.298778687,9.771679688,9.888419782
11.31730158,1.43925705,-0.323028259,9.831555176,9.941593699
11.32735358,1.372795258,-0.330363007,9.845625916,9.946358942
11.33740558,1.296304321,-0.329165497,9.825867004,9.916472014
11.34745658,1.263522491,-0.329764252,9.788744202,9.875461842
11.35750858,1.247056732,-0.32527359,9.772877197,9.857488631
11.36756058,1.219514008,-0.303419037,9.766440582,9.846960911
11.37761258,1.161285095,-0.302071838,9.760153656,9.833637672
11.38766458,1.11622879,-0.304017792,9.733209686,9.801722518
11.39771558,1.076411591,-0.283809814,9.736502838,9.799933543
11.40776758,1.019978943,-0.268990631,9.790989532,9.847648909
11.41781958,0.960103455,-0.246537323,9.78425354,9.834337631
11.42787158,0.942440186,-0.23396347,9.773026886,9.82114998
11.43792358,0.944685516,-0.20357666,9.748328247,9.79611034
11.44797458,0.903970184,-0.180973663,9.787546692,9.830868924
11.45802658,0.878822479,-0.168100433,9.868378601,9.90885881
11.46807858,0.813857574,-0.189056854,9.90355545,9.93873821
11.47813058,0.731379089,-0.210013275,9.87316864,9.902448179
11.48818258,0.670904846,-0.191751251,9.812095642,9.836874643
11.49823358,0.665216675,-0.136815491,9.77841568,9.801971481
11.50828558,0.62135788,-0.117505646,9.838141479,9.858444145
11.51833758,0.536334686,-0.130079498,9.906100159,9.921461381
11.52838958,0.493673401,-0.164657593,10.04950195,10.06296751
11.53844158,0.463585968,-0.19309845,10.29603928,10.30827938
11.54849258,0.549656982,-0.226628723,10.67939209,10.69592908
11.55854458,0.720302124,-0.271086273,11.23159378,11.2579315
11.56859658,0.782872009,-0.407901764,12.09918961,12.13135036
11.57864858,0.683179321,-0.730630646,13.35612579,13.3935302
11.58870058,0.691861267,-0.765059052,15.03683075,15.0721686
11.59875158,0.161663818,-0.778231659,17.47750534,17.49557009
11.60880358,-0.501008148,-0.724343719,19.49710556,19.51698768
11.61885558,-0.936302948,-0.55699173,20.6935675,20.72222573
11.62890758,-0.833167419,-0.307460632,21.57403656,21.59230774
11.63895958,0.34982254,-0.037571869,21.8270105,21.82984596
11.64901058,2.496807861,0.071251831,21.23274628,21.37916371
11.65906258,4.797074432,0.175734558,20.61378342,21.1653224
11.66911458,6.807693329,0.35685791,20.6962619,21.79007326
11.67916658,8.28766571,0.537981262,20.81601288,22.41163133
11.68921858,8.795110474,0.630039825,20.96869537,22.74724388
11.69926958,8.244255981,0.651445313,21.27346161,22.82437965
11.70932158,7.094646606,0.690514069,21.3917157,22.54808907
11.71937358,5.692961426,0.716559906,21.11988098,21.88544358
11.72942558,4.39950119,0.690963135,20.67126389,21.14554779
11.73947758,3.399430847,0.516875153,20.66527634,20.94938987
11.74952858,2.724484406,0.30776001,20.21546173,20.40054961
11.75958058,2.382745056,0.095800781,18.96421371,19.1135568
11.76963342,1.487456818,0.017962646,17.45595016,17.51921935
11.77968542,0.806373138,-0.5733078,16.1416832,16.17197749
11.78973742,0.742755432,-1.057999878,14.59973969,14.6568567
11.79978842,0.649499359,-1.404828644,13.09881088,13.18992947
11.80984042,0.107775879,-1.245559845,11.75101364,11.81733289
11.81989242,-0.259410553,-1.03898941,10.2559227,10.31167994
11.82994442,-0.052989807,-1.301693115,8.406967621,8.507309649
11.83999542,0.100141754,-1.625619507,6.749464417,6.943193578
11.85004742,0.123792572,-1.865720215,5.730383606,6.027730318
11.86009942,0.331560516,-1.957778778,4.766687622,5.163733243
11.87015142,0.517922974,-1.898801422,3.738924866,4.225310663
11.88020342,0.409248962,-1.489402771,2.895279236,3.281531225
11.89025442,1.232836304,-1.280287628,1.9681073,2.651880108
11.90030642,1.485211487,-1.184935913,1.090033264,2.190456299
11.91035842,1.183289337,-0.954265594,0.706979828,1.676489474
11.92041042,0.615220642,-0.649798737,0.58737854,1.070396369
11.93046242,0.384550323,-0.472866669,0.527802429,0.806261274
11.94051342,0.390238495,-0.214354248,0.473315735,0.649816598
11.95056542,0.429906006,0.075143738,0.416134644,0.603020561
11.96061742,0.401914215,0.226029968,0.326171722,0.564811982
11.97066942,0.34982254,0.306263123,0.306861877,0.557079098
11.98072142,0.362097015,0.424367523,0.333057404,0.649714766
11.99077242,0.524509277,0.670306091,0.542172546,1.009143849
12.00082442,0.582588501,0.961450653,0.726888428,1.338717112
12.01087642,0.580792236,1.229243774,0.836909637,1.596489154
12.02092842,0.49382309,1.389710083,0.8307724,1.692730971
12.03098042,0.366887054,1.335822144,0.677341461,1.542017628
12.04103142,0.384700012,1.28941864,0.456999664,1.421071153
12.05108342,0.47391449,1.080902252,0.306412811,1.219357795
12.06113542,0.487835541,1.013392639,0.194745026,1.141434966
12.07118742,0.296683044,0.934356995,0.14280304,0.990674785
12.08123842,0.047750702,0.93720108,0.34278717,0.999064081
12.09129042,-0.184566193,1.080752563,0.603544922,1.251541951
12.10134242,-0.264949036,1.362766113,0.895886993,1.652253908
12.11139442,-0.15328125,1.680106201,1.051263885,1.987814817
12.12144642,0.055983582,1.609602814,0.838107147,1.815593283
12.13149742,0.231119385,1.666035461,0.806971893,1.8655546
12.14154942,0.447718964,1.877096558,0.944535828,2.148509178
12.15160142,0.826730804,2.111209717,1.187779999,2.55959208
12.16165342,1.429527283,2.512674866,1.573378143,3.291291846
12.17170542,2.001637573,2.842439117,2.271676025,4.152893579
12.18175642,1.492845612,2.413281555,2.926713867,4.076538966
12.19180842,0.161813507,1.414558411,3.111729126,3.421990249
12.20186042,-0.680335236,0.593515778,2.878963165,3.017208299
12.21191242,-0.858315125,0.273930359,2.530487823,2.686095925
12.22196442,-0.451760559,0.507744141,2.13770462,2.243139041
12.23201542,0.263452148,1.037492523,1.644480286,1.962170528
12.24206742,0.883612518,1.635498962,1.179696808,2.201661304
12.25211942,0.775986328,1.530716858,0.602796478,1.818959173
12.26217142,0.393681335,1.141526184,0.019758911,1.207666112
12.27222342,0.354612579,1.040037231,-0.407602386,1.171992845
12.28227442,0.203426971,0.930914154,-0.555195465,1.102826233
12.29232642,0.186362457,1.057401123,-0.424217834,1.154464755
12.30237842,0.383951569,1.063238983,-0.102836151,1.13510846
12.31243042,0.927171936,1.102906494,0.589923248,1.556939296
12.32248242,1.609453125,1.44150238,1.684147797,2.739456566
12.33253342,1.998194733,1.694626007,2.417772217,3.565131412
12.34258542,2.025887146,1.949246521,3.008593597,4.117695492
12.35263742,2.02888092,2.235900421,3.41664505,4.559503469
12.36268942,2.218087463,2.379601593,3.367696838,4.682285524
12.37274142,2.373314667,2.280657349,2.929707642,4.406496036
12.38279242,2.381996613,2.149979095,2.59530304,4.126974175
12.39284442,2.037862244,1.561403046,3.005300446,3.952555219
12.40289642,0.951122131,-0.106129303,3.556454315,3.682969459
12.41294842,0.331261139,-1.351240082,4.303850098,4.523130483
12.42299942,0.300874329,-1.976040802,5.294789429,5.659510377
12.43305142,0.606239319,-2.322719879,6.645430756,7.065713246
12.44310342,1.228495331,-2.728376312,8.195607147,8.724747251
12.45315542,1.88503006,-3.247047729,9.455686798,10.17382279
12.46320742,2.061063995,-3.880979462,10.22703278,11.13113587
12.47325842,2.059417419,-4.75291626,11.20854172,12.34758359
12.48331042,1.785487061,-5.590274963,13.25927719,14.4999162
12.49336242,1.561253357,-6.046226807,15.7328833,16.92684222
12.50341442,1.589544525,-6.557862854,17.93225967,19.15980569
12.51346642,1.32459549,-6.187532959,20.81885696,21.75924913
12.52351742,1.147663422,-5.730832672,23.16896988,23.89478478
12.53356942,-0.27258316,-6.59109375,24.77273483,25.63601392
12.54362142,-1.303339691,-6.658603363,25.93791183,26.81065019
12.55367342,-1.937570801,-5.760021973,26.08730118,26.78580438
12.56372542,-2.207309875,-3.855233002,26.72213104,27.08887827
12.57377642,-0.509690094,-0.206869812,35.9739418,35.97814709
12.58382842,0.577798462,2.292482758,38.59828445,38.67062052
12.59388042,-0.095052338,0.890198822,28.69143585,28.70539984
12.60393242,0.016615448,-1.488055573,24.48308716,24.5282723
12.61398442,1.309177551,-2.670895844,23.28722397,23.47642287
12.62403542,2.398013306,-3.366948395,20.30228119,20.71881828
12.63408742,3.513343964,-3.156486053,17.70263718,18.32185452
12.64413942,4.173471222,-2.130369873,16.90539505,17.5427683
12.65419142,4.006717987,-0.978964233,17.14729202,17.63637672
12.66424342,3.196602631,-0.238454132,16.80016388,17.10323464
12.67429442,1.746717682,-0.765059052,15.49038757,15.60732024
12.68434642,0.566871185,-1.831291809,13.82210678,13.95441179
12.69439842,0.152233429,-2.398013306,12.07239532,12.30919866
12.70445042,0.042960663,-2.537074127,10.6301445,10.92879512
12.71450242,0.008083191,-2.597698059,9.364676056,9.718295024
12.72455342,-0.15208374,-2.650538177,8.521928558,8.925903229
12.73460542,-0.37092865,-2.772235107,7.812104645,8.297701762
12.74465742,-0.457897797,-2.785258026,7.089108124,7.630385747
12.75470942,-0.545465698,-2.807711334,6.373146973,6.985540645
12.76476042,-0.723445587,-2.93569519,5.971083069,6.692945001
12.77481271,-0.80382843,-3.108136597,5.755830688,6.590617586
12.78486471,-0.699944458,-3.099005585,5.629643097,6.464258601
12.79491671,-0.465831299,-2.868185577,5.752387848,6.444645317
12.80496871,-0.156574402,-2.601290588,6.266119537,6.786418962
12.81501971,0.012424164,-2.643053741,6.541397095,7.055194072
12.82507171,-0.045355682,-2.657723236,6.966063995,7.455977302
12.83512371,0.035027161,-2.540966034,7.319029999,7.747640635
12.84517571,0.060174866,-2.337089996,7.958200836,8.294490413
12.85522771,0.097447357,-2.217189331,8.529862061,8.813851104
12.86527871,0.092208252,-2.172133026,9.000034332,9.258902863
12.87533071,0.122145996,-2.147883453,9.439969482,9.682011506
12.88538271,0.139809265,-2.117646332,9.871821442,10.09736754
12.89543471,0.199535065,-2.075284424,10.20218445,10.41302968
12.90548671,0.367635498,-1.96690979,10.52521271,10.71372916
12.91553771,0.54292099,-1.845811615,10.84360062,11.01296772
12.92558971,0.689915314,-1.76453064,10.94449081,11.10726927
12.93564171,0.821940765,-1.740879822,10.94853241,11.11650175
12.94569371,0.89513855,-1.74342453,10.99194214,11.16528522
12.95574571,0.917442169,-1.717079315,10.97577576,11.14709446
12.96579671,0.918190613,-1.68025589,10.98939743,11.15496256
12.97584871,0.861458588,-1.657353516,11.05915237,11.21578276
12.98590071,0.81325882,-1.596579895,11.04268661,11.18710798
12.99595271,0.770148468,-1.511407013,10.96963852,11.10002023
13.00600371,0.723595276,-1.444795532,10.80842377,10.92854284
13.01605571,0.640518036,-1.401685181,10.64765808,10.7586062
13.02610771,0.539478149,-1.415456543,10.61128372,10.71885703
13.03615971,0.405506744,-1.426832886,10.4642894,10.56889968
13.04621171,0.315094757,-1.366358643,10.16266663,10.25894798
13.05626271,0.221389618,-1.290017395,9.874964905,9.961329736
13.06631471,0.127834167,-1.271605682,9.65432373,9.738546569
13.07636671,-0.009729767,-1.268462219,9.435029755,9.519920039
13.08641871,-0.127834167,-1.265019379,9.27291687,9.359679636
13.09647071,-0.218545532,-1.258133698,9.218879242,9.306900506
13.10652171,-0.29952713,-1.273851013,9.205856323,9.298397902
13.11657371,-0.346080322,-1.316661987,9.066047058,9.167692165
13.12662571,-0.35102005,-1.33627121,9.001680908,9.107090369
13.13667771,-0.344882813,-1.352138214,8.978928223,9.086714144
13.14672971,-0.327219543,-1.419498138,8.925938416,9.04402699
13.15678071,-0.31479538,-1.530567169,8.924890594,9.060651418
13.16683271,-0.237705688,-1.641187134,9.013057251,9.16434396
13.17688471,-0.047301636,-1.697170715,9.1570578,9.313126942
13.18693671,0.151335297,-1.717528381,9.283844147,9.442593301
13.19698871,0.277073822,-1.712588654,9.439969482,9.598059889
13.20703971,0.352816315,-1.713786163,9.685309296,9.842091166
13.21709171,0.356558533,-1.702858887,9.974058838,10.12465862
13.22714371,0.296832733,-1.721420288,10.14904495,10.29827709
13.23719571,0.312550049,-1.727557526,10.24604324,10.39536169
13.24724771,0.437689819,-1.761387177,10.27837601,10.43738811
13.25729871,0.711320801,-1.805096283,10.15054184,10.3343045
13.26735071,1.109642487,-1.846260681,9.848170624,10.08099447
13.27740271,1.544937286,-1.835183716,9.56196579,9.858291954
13.28745471,1.991009674,-1.753004608,9.326056366,9.696002889
13.29750571,2.392325134,-1.625619507,9.135502625,9.582445749
13.30755771,2.650388489,-1.511407013,9.054670715,9.554892572
13.31760971,2.714904327,-1.44269989,9.130263519,9.633991925
13.32766171,2.711311798,-1.394949188,9.321416016,9.807440616
13.33771371,2.571352844,-1.330583038,9.541757813,9.971331347
13.34776471,2.313588867,-1.319655762,9.807305603,10.16255027
13.35781671,1.976639557,-1.344953156,10.15727783,10.43485965
13.36786871,1.64043869,-1.414857788,10.38225998,10.60585612
13.37792071,1.364562378,-1.475182343,10.42836411,10.62021522
13.38797271,1.273252258,-1.459165649,10.37986496,10.55897402
13.39802371,1.322499847,-1.431922302,10.21176453,10.39613111
13.40807571,1.440753937,-1.368753662,9.960137787,10.15645623
13.41812771,1.505718842,-1.320703583,9.639953613,9.845819054
13.42817971,1.480870514,-1.286275177,9.432485046,9.634275036
13.43823171,1.370549927,-1.273252258,9.340127106,9.525626109
13.44828271,1.197659454,-1.23792572,9.38413559,9.540903994
13.45833471,1.015188904,-1.200653229,9.572743378,9.701009868
13.46838671,0.819845123,-1.149459686,9.808503113,9.909598221
13.47843871,0.679287415,-1.064885559,9.923014984,10.00308148
13.48849071,0.644260254,-0.990639954,9.976304169,10.04604816
13.49854171,0.614621887,-0.912801819,9.938881989,9.999617113
13.50859371,0.556842041,-0.900078278,9.853559418,9.910239511
13.51864571,0.471818848,-0.918939056,9.784103851,9.838483124
13.52869771,0.391286316,-0.925675049,9.601633301,9.654084178
13.53874971,0.290845184,-0.904269562,9.416019287,9.463810732
13.54880071,0.128283234,-0.882864075,9.330846405,9.37339854
13.55885271,-0.00239502,-0.881516876,9.243877258,9.285814154
13.56890471,-0.152532806,-0.872984619,9.164991302,9.207737723
13.57895671,-0.331560516,-0.853525085,9.133556671,9.179340658
13.58900771,-0.480351105,-0.859512634,9.093290405,9.146443546
13.59905971,-0.598455505,-0.823886719,9.085805969,9.142691531
13.60911171,-0.693208466,-0.770447845,9.135502625,9.194103331
13.61916371,-0.776435394,-0.733774109,9.215286713,9.277003048
13.62921571,-0.85651886,-0.749940491,9.295370178,9.364824721
13.63926671,-0.894240417,-0.805774384,9.296118622,9.373727098
13.64931871,-0.775537262,-0.804576874,9.319919128,9.386676438
13.65937071,-0.597407684,-0.788410492,9.504036255,9.555375041
13.66942271,-0.407602386,-0.834514618,9.753267975,9.797386924
13.67947471,-0.279319153,-0.933309174,9.926008759,9.973702175
13.68952571,-0.258213043,-1.087338867,10.0674646,10.12930517
13.69957771,-0.306113434,-1.240470428,10.0753981,10.15608779
13.70962971,-0.302520905,-1.340462494,9.988728333,10.08280974
13.71968171,-0.260757751,-1.357826385,9.926308136,10.02213951
13.72973371,-0.17318985,-1.358724518,9.830207977,9.925175863
13.73978471,-0.092956696,-1.340013428,9.721234589,9.813596632
13.74983671,0.033230896,-1.335672455,9.690997467,9.782666155
13.75988871,0.183817749,-1.318158875,9.682315521,9.773359997
13.76994029,0.315244446,-1.3549823,9.705517273,9.804714255
13.77999229,0.437989197,-1.385967865,9.67078949,9.779412601
13.79004329,0.659528503,-1.396446075,9.626631317,9.749721535
13.80009529,0.954115906,-1.337319031,9.628277893,9.767420055
13.81014729,1.174158325,-1.26367218,9.709708557,9.861742007
13.82019929,1.322350159,-1.179696808,9.831405487,9.989836252
13.83025029,1.382824402,-1.109792175,10.04830444,10.20354175
13.84030229,1.32339798,-1.069076843,10.36714142,10.50580452
13.85035429,1.200952606,-1.003363495,10.73807007,10.85150562
13.86040629,1.12565918,-0.937949524,11.08100693,11.17745823
13.87045829,0.965941315,-0.959205322,11.32619705,11.40771042
13.88050929,0.783770142,-1.042731628,11.43801453,11.5121571
13.89056129,0.721499634,-1.031504974,11.51345764,11.58206679
13.90061329,0.770148468,-0.915795593,11.43412262,11.49656341
13.91066529,0.668360138,-0.684676208,11.57363251,11.6131157
13.92071729,0.601000214,-0.401016083,12.22852066,12.24984623
13.93076829,0.743803253,-0.200732574,13.35462891,13.37683259
13.94082029,1.045126648,-0.108224945,14.4455603,14.48372241
13.95087229,1.512305145,-0.178578644,14.80720825,14.8853073
13.96092429,1.87215683,-0.401465149,15.36734344,15.4861677
13.97097629,1.802850952,-0.960702209,15.68228851,15.81478401
13.98102729,1.445244598,-1.726509705,15.67630096,15.83717082
13.99107929,0.918789368,-2.427352295,16.68999298,16.89059143
14.00113129,0.743354187,-2.806962891,17.96863403,18.20174237
14.01118329,0.948128357,-2.879412231,19.02349045,19.26351866
14.02123529,1.475631409,-2.794089661,19.78331039,20.03406587
14.03128629,2.279759216,-2.558030548,20.30886749,20.59589574
14.04133829,3.051853638,-2.304457855,20.51424042,20.86763994
14.05139029,3.852239227,-1.903441772,20.51813232,20.96321997
14.06144229,4.071832581,-1.393152924,20.45900528,20.90673558
14.07149329,3.387605438,-1.131347351,20.19435562,20.50775015
14.08154529,2.282154236,-1.119222565,19.60518082,19.76926913
14.09159729,1.154100037,-1.276695099,18.83069138,18.9091733
14.10164929,0.215551758,-1.550625458,18.09078003,18.15839266
14.11170129,-0.423170013,-1.85464325,17.30865646,17.41287923
14.12175229,-0.621058502,-2.080972595,16.61350204,16.75483843
14.13180429,-0.71611084,-2.240540771,16.08090958,16.25203035
14.14185629,-0.698297882,-2.367925873,15.62765213,15.82144759
14.15190829,-0.604592743,-2.419418793,15.13382904,15.33792362
14.16196029,-0.392334137,-2.538121948,14.52474564,14.75005847
14.17201129,-0.230370941,-2.627336426,13.7236116,13.97474447
14.18206329,-0.313747559,-2.412383423,12.84149597,13.06989098
14.19211529,-0.357306976,-2.459984436,11.81642761,12.07506328
14.20216729,-0.284109192,-2.498454437,10.62026505,10.91389125
14.21221929,-0.245190125,-2.317630463,9.601034546,9.879847849
14.22227029,-0.027991791,-2.11435318,8.96755188,9.213482492
14.23232229,0.319884796,-1.80659317,8.509055328,8.704603825
14.24237429,0.483344879,-1.493144989,7.946974182,8.100463128
14.25242629,0.708925781,-1.232237549,7.208709412,7.347549015
14.26247829,0.92088501,-1.066532135,6.593638458,6.742520902
14.27252929,0.480650482,-0.915645905,6.100114746,6.187150574
14.28258129,-0.133073273,-1.049766998,5.767506409,5.863774332
14.29263329,-0.616867218,-1.369502106,5.132826233,5.34808062
14.30268529,-0.555494843,-1.29645401,4.314477997,4.539172601
14.31273729,-0.271535339,-0.722397766,3.76062973,3.839000644
14.32278829,-0.301473083,-0.247884521,3.569776611,3.591049681
14.33284029,-0.315843201,0.056282959,3.287763062,3.303378672
14.34289229,-0.359851685,0.292042694,2.878065033,2.915139877
14.35294429,-0.469872894,0.464184723,2.672692108,2.753094822
14.36299529,-0.58977356,0.565673676,2.367776184,2.504832054
14.37304729,-0.815055084,0.546513519,1.944157104,2.17778297
14.38309929,-0.980012054,0.406404877,1.65211441,1.963433364
14.39315129,-0.511785736,0.10418335,1.231189728,1.33738811
14.40320329,-0.319884796,0.421673126,0.804427185,0.962931775
14.41325429,-0.220192108,0.699046326,0.601598969,0.948193888
14.42330629,-0.361647949,0.750090179,0.615669708,1.035603064
14.43335829,-0.481099548,0.88690567,0.624950409,1.186853595
14.44341029,-0.417781219,0.882564697,0.614921265,1.153945299
14.45346229,-0.185614014,0.882864075,0.554297333,1.058842325
14.46351329,0.04326004,0.907562714,0.552800446,1.063545882
14.47356529,0.175135803,1.072819061,0.78391983,1.340202816
14.48361729,0.303568726,1.265767822,1.015338593,1.650828461
14.49366929,0.477207642,1.459315338,1.17011673,1.930414865
14.50372129,0.474962311,1.591191101,1.229094086,2.065950287
14.51377229,0.429157562,1.686243439,1.293759613,2.168272834
14.52382429,0.565523987,1.79611496,1.522483978,2.421529226
14.53387629,0.717757416,2.018851776,1.86392395,2.839920896
14.54392829,1.003513184,2.246678009,2.184108124,3.290125998
14.55398029,1.395847321,2.36238739,2.410437469,3.65232429
14.56403129,1.401834869,1.907782745,2.410587158,3.378713727
14.57408329,1.033750305,1.504521332,2.409838715,3.023168332
14.58413529,0.759819946,1.561852112,2.564018097,3.096917366
14.59418729,0.711171112,1.801503754,2.783312073,3.390871012
14.60423829,0.643212433,1.948498077,2.879412231,3.535729315
14.61429029,0.440683594,1.908830566,2.834804993,3.445860634
14.62434229,0.169896698,1.780397644,2.755769348,3.28526184
14.63439429,0.048050079,1.612596588,2.728376312,3.16967094
14.64444629,0.006735992,1.523681488,2.858904877,3.239596849
14.65449729,0.212108917,1.645228729,3.209775238,3.61309076
14.66454929,0.377365265,1.635498962,3.77934082,4.135296656
14.67460129,0.32183075,1.553170166,4.151766357,4.444443327
14.68465329,0.248932343,1.506018219,4.226461029,4.493665655
14.69470529,0.102387085,1.420246582,4.074676666,4.316314794
14.70475629,-0.306712189,1.164129181,3.647315369,3.840856482
14.71480829,-0.792751465,0.855620728,3.133883057,3.343914581
14.72486029,-1.057251434,0.543070679,2.644101563,2.898961785
14.73491229,-0.943937073,0.25387207,2.261048126,2.463291874
14.74496429,-0.755329285,-0.114212494,1.943258972,2.088018739
14.75501529,-0.344134369,-0.556842041,1.667232971,1.791135758
14.76506729,0.308209076,-0.889151001,1.456022186,1.733661716
14.77511942,0.787811737,-0.929117889,1.459015961,1.900693284
14.78517142,0.801583099,-0.96998291,1.723665619,2.134109996
14.79522342,0.65758255,-1.197809143,2.258802795,2.639952958
14.80527442,0.393531647,-1.638193359,3.084635468,3.514757546
14.81532642,-0.005538483,-1.801503754,4.238136749,4.605132957
14.82537842,0.029937744,-2.002835083,5.169799347,5.544282634
14.83543042,-0.040565643,-2.685265961,6.019133148,6.591074473
14.84548142,-0.190553741,-3.280428314,7.788154449,8.452979971
14.85553342,-0.715961151,-4.501139832,10.6314917,11.56725879
14.86558542,-1.159488831,-5.528453522,13.03564224,14.20690612
14.87563742,-0.654588776,-5.918093262,14.44121933,15.62053552
14.88568942,-0.069605255,-5.726940765,15.25672348,16.29632802
14.89574042,0.283061371,-5.134023743,16.26412857,17.05755556
14.90579242,0.154778137,-4.602778473,17.75158539,18.33925598
14.91584442,0.105829926,-4.21343811,19.3532547,19.80688588
14.92589642,0.019160156,-4.23918457,20.81915634,21.24637201
14.93594842,-0.127385101,-3.918102264,21.90365112,22.25168948
14.94599942,-0.132624207,-3.368894348,21.83718933,22.09592442
14.95605142,-0.029189301,-2.343077545,20.89205475,21.02305439
14.96610342,-0.097597046,-1.861079865,20.65105591,20.73497658
14.97615542,-0.356408844,-2.159559174,21.67956711,21.78977634
14.98620742,-0.417930908,-3.05035675,21.80455719,22.02085504
14.99625842,-0.138013,-3.67291214,20.92423782,21.24460072
15.00631042,0.889749756,-3.515888672,19.3093959,19.6470328
15.01636242,2.019151154,-2.934048615,17.39592499,17.75679641
15.02641442,2.563419342,-2.480791168,15.6387291,16.04042678
15.03646542,2.665806427,-2.116897888,14.63461716,15.02530532
15.04651742,2.519560547,-1.898951111,13.84935013,14.20417895
15.05656942,2.251318359,-1.811682587,13.00420761,13.32141298
15.06662142,2.146087189,-1.747615814,12.38359818,12.68910379
15.07667342,2.182910614,-1.676663361,12.07224564,12.38206015
15.08672442,2.331252136,-1.649270325,12.18541031,12.51555247
15.09677642,2.680775299,-1.52697464,12.6208548,12.99246642
15.10682842,3.12879364,-1.336570587,13.01184174,13.44930466
15.11688042,3.577410736,-1.092727661,13.07965073,13.60401354
15.12693242,3.853586426,-0.940494232,12.78087204,13.38227738
15.13698342,3.964356079,-0.883313141,12.28420486,12.93823985
15.14703542,3.960164795,-0.757724304,11.47618515,12.1638759
15.15708742,3.8273909,-0.696501617,10.84090622,11.51778118
15.16713942,3.414399719,-1.002465363,10.62924637,11.20910079
15.17719142,3.2341745,-1.162482605,10.64541275,11.18642316
15.18724242,3.4611026,-0.843196564,11.1052565,11.66262979
15.19729442,3.873794403,-0.429606628,11.57557846,12.2141255
15.20734642,4.029320984,-0.53244278,11.62961609,12.31937065
15.21739842,3.799848175,-1.085692291,11.69488037,12.34454539
15.22745042,3.407214661,-1.705553284,11.35658386,11.97873202
15.23750142,3.090473328,-2.15417038,10.74705139,11.3881776
15.24755342,2.85740799,-2.306703186,10.20008881,10.84100879
15.25760542,2.682122498,-2.245779877,9.731413422,10.34106936
15.26765742,2.53797226,-2.071392517,9.359586639,9.916341675
15.27770842,2.270628204,-1.916315002,9.137298889,9.608238476
15.28776042,1.926044769,-1.830842743,9.143885193,9.522198802
15.29781242,1.546284485,-1.77381134,9.185049591,9.48169491
15.30786442,1.05186264,-1.720372467,9.199719086,9.418116993
15.31791642,0.526455231,-1.644480286,9.335187378,9.493534321
15.32796742,0.043559418,-1.66498764,9.712103577,9.853884369
15.33801942,-0.331859894,-1.846260681,10.11671219,10.28915327
15.34807142,-0.562530212,-2.081721039,10.41878403,10.63959883
15.35812342,-0.621657257,-2.246977386,10.42267593,10.68024058
15.36817542,-0.450862427,-2.284848633,10.26400589,10.52490509
15.37822642,-0.177680511,-2.340532837,10.1975441,10.46420422
15.38827842,0.234412537,-2.226020966,10.1444046,10.38841005
15.39833042,0.693657532,-2.085463257,9.987979889,10.22692818
15.40838242,1.284029846,-1.4730867,10.33106644,10.5142594
15.41843442,1.749711456,-0.84484314,10.36534515,10.54588215
15.42848542,0.995280304,-0.759670258,10.7283403,10.80115584
15.43853742,0.771645355,-1.034199371,10.49407745,10.57311054
15.44858942,0.269290009,-1.362466736,10.08707382,10.18223409
15.45864142,0.092357941,-1.379680939,9.96088623,10.05640612
15.46869242,0.090411987,-1.216819611,9.898016968,9.972941601
15.47874442,0.155376892,-1.158291321,10.01357666,10.08154246
15.48879642,0.26210495,-1.159039764,10.34573593,10.41375649
15.49884842,0.34054184,-1.165476379,10.5253624,10.59516671
15.50890042,0.336200867,-1.187929688,10.54856415,10.62056559
15.51895142,0.240100708,-1.23208786,10.38869659,10.46425849
15.52900342,0.142503662,-1.262025604,10.09485764,10.17443692
15.53905542,0.056881714,-1.230291595,9.733658752,9.81126728
15.54910742,0.054187317,-1.133592682,9.38638092,9.454740367
15.55915942,0.096998291,-1.050814819,9.142088928,9.202793621
15.56921042,0.179177399,-1.013392639,9.077872467,9.136018701
15.57926242,0.32766861,-1.039588165,9.175020447,9.239540598
15.58931442,0.54292099,-1.065334625,9.291777649,9.36839543
15.59936642,0.898431702,-1.087638245,9.342372437,9.448283401
15.60941842,1.265169067,-1.145418091,9.40988205,9.563394563
15.61946942,1.533710632,-1.118773499,9.485624542,9.673727069
15.62952142,1.720671844,-0.909358978,9.829160156,10.01998177
15.63957342,2.202819214,-1.412013702,9.648934937,9.997406693
15.64962542,2.474354553,-1.706750793,9.920619965,10.36600835
15.65967742,2.81055542,-1.576820984,10.16266663,10.66139668
15.66972842,3.444936218,-1.316811676,10.39094193,11.02602615
15.67978042,3.842958527,-1.169517975,10.75797867,11.48347541
15.68983242,4.078718262,-1.276395721,10.92922256,11.73511971
15.69988442,4.212240601,-1.414558411,11.03819595,11.89897963
15.70993542,4.169130249,-1.554517365,11.09612549,11.95500615
15.71998742,3.863166504,-1.667083282,11.03011276,11.8053636
15.73003942,3.450175323,-1.717079315,10.87743027,11.53995495
15.74009142,3.012635193,-1.779200134,10.68208649,11.24048467
15.75014342,2.589914246,-1.839075623,10.56443115,11.03163907
15.76019442,2.218985596,-1.848506012,10.52581146,10.91483296
15.77024567,1.83817749,-1.827549591,10.50305878,10.81818273
15.78029767,1.339115295,-1.754202118,10.55754547,10.78574157
15.79034967,0.789458313,-1.655108185,10.57625656,10.73405005
15.80040167,0.17318985,-1.621428223,10.45470932,10.58111389
15.81045267,-0.411943359,-1.629511414,10.33076706,10.46660178
15.82050467,-0.932411041,-1.593286743,10.05593857,10.22398423
15.83055667,-1.307530975,-1.603315887,9.696386261,9.914643998
15.84060867,-1.524878998,-1.628912659,9.35599411,9.618380227
15.85066067,-1.438658295,-1.575024719,9.027277679,9.275892564
15.86071167,-1.144669647,-1.531315613,8.70305191,8.910572858
15.87076367,-0.7816745,-1.493444366,8.358767853,8.527038825
15.88081567,-0.436791687,-1.479373627,8.181835785,8.32596962
15.89086767,-0.134869537,-1.490749969,8.083639984,8.221055933
15.90091967,0.137563934,-1.50122818,7.962841187,8.104285881
15.91097067,0.382155304,-1.633852386,7.906707916,8.082793228
15.92102267,0.375269623,-1.632654877,7.682923279,7.863440681
15.93107467,-0.346828766,-1.355880432,7.851472778,7.97523208
15.94112667,1.08464447,-1.4730867,7.850874023,8.061182357
15.95117767,1.157542877,-1.366508331,7.740852814,7.945316408
15.96122967,0.283510437,-1.077459412,8.394992523,8.468600617
15.97128167,0.258662109,-0.870290222,8.492290192,8.54068521
15.98133367,-0.349223785,-0.822838898,8.154143372,8.202991846
15.99138567,-1.062640228,-0.688717804,8.439300385,8.533775685
16.00143667,-0.688418427,-0.625399475,8.777297516,8.82643734
16.01148867,-0.057929535,-0.733474731,9.384434967,9.413233274
16.02154067,0.313448181,-1.082997894,9.930349731,9.994147287
16.03159267,0.987646179,-1.265169067,9.693841553,9.825816088
16.04164467,1.602268066,-1.236428833,9.830207977,10.03638421
16.05169567,1.586251373,-1.219663696,10.32971924,10.52173334
16.06174767,1.364113312,-1.334924011,11.15929413,11.32133705
16.07179967,0.842747498,-1.494641876,11.92106003,12.0439134
16.08185167,0.296383667,-1.4929953,12.79224838,12.88248799
16.09190367,0.104632416,-1.152603149,13.3772319,13.42720281
16.10195467,0.164657593,-0.716709595,13.11797104,13.13856723
16.11200667,0.059426422,-0.489033051,12.65678009,12.66636361
16.12205867,-0.21300705,-0.562679901,12.32596802,12.34064294
16.13211067,-0.536334686,-0.790356445,12.03781723,12.07565161
16.14216167,-0.764160919,-0.954714661,11.6534166,11.71740331
16.15221367,-0.899928589,-1.046623535,11.22081619,11.30539731
16.16226567,-1.026265869,-1.142723694,10.7973468,10.90604131
16.17231767,-1.185235291,-1.237177277,10.34094589,10.48191549
16.18236967,-1.339564362,-1.278341675,9.850415955,10.02293792
16.19242067,-1.444945221,-1.353934479,9.337432709,9.545085377
16.20247267,-1.52113678,-1.503473511,8.825347595,9.080806675
16.21252467,-1.433119812,-1.569186859,8.34275116,8.60916237
16.22257667,-1.20170105,-1.574725342,7.927963715,8.171686116
16.23262867,-0.901425476,-1.545985107,7.682025146,7.887721356
16.24267967,-0.700992279,-1.569635925,7.748187561,7.936596096
16.25273167,-0.570314026,-1.673819275,7.778424683,7.976892854
16.26278367,-0.529898071,-1.759141846,7.840395813,8.052774584
16.27283567,-0.542771301,-1.795366516,7.95191391,8.170120956
16.28288767,-0.502505035,-1.77500885,7.690856781,7.909010416
16.29293867,-0.405806122,-1.770069122,7.268435211,7.491860498
16.30299067,-0.378562775,-1.850302277,7.066954193,7.31496889
16.31304267,-0.311651917,-1.944306793,7.09779007,7.365872636
16.32309467,-0.157322845,-1.986219635,7.458390198,7.719935444
16.33314567,0.131726074,-1.881138153,7.964637451,8.18483245
16.34319767,0.548309784,-1.684297485,8.355325012,8.541016198
16.35324967,0.822689209,-1.529219971,8.840466156,9.009393604
16.36330167,0.908460846,-1.435365143,9.254804535,9.409409183
16.37335367,0.829275513,-1.313518524,9.424102478,9.551268832
16.38340467,0.654139709,-1.117575989,9.461524658,9.549728986
16.39345667,0.42586441,-0.949176178,9.608518982,9.664674487
16.40350867,0.243543549,-0.776734772,9.912536774,9.945904466
16.41356067,0.159717865,-0.611029358,10.38779846,10.40697956
16.42361267,0.083226929,-0.47735733,10.87338867,10.88418017
16.43366367,-0.096848602,-0.358205109,11.06424179,11.07046236
16.44371567,-0.300874329,-0.259859619,11.0084079,11.01558427
16.45376767,-0.462987213,-0.20941452,10.92533066,10.93714138
16.46381967,-0.555195465,-0.1579216,10.71367081,10.72920889
16.47387167,-0.476908264,-0.118553467,10.5106929,10.52217476
16.48392267,-0.260757751,-0.122295685,10.39692947,10.40091791
16.49397467,-0.048499146,-0.20357666,10.33301239,10.33513138
16.50402667,0.084723816,-0.329464874,10.28795609,10.29357885
16.51407867,0.230370941,-0.454754333,10.19335281,10.206092
16.52413067,0.404009857,-0.564625854,9.861941986,9.886350492
16.53418167,0.592617645,-0.702938232,9.446406097,9.491043462
16.54423367,0.673599243,-0.886157227,9.206155701,9.27320405
16.55428567,0.665216675,-0.961899719,8.969497833,9.045421807
16.56433767,0.714015198,-1.097966766,8.674461365,8.772777707
16.57438867,0.564326477,-1.126257935,8.52177887,8.614385434
16.58444067,0.405955811,-0.947679291,8.460107117,8.52269374
16.59449267,0.899479523,-0.998723145,8.355474701,8.462887735
16.60454467,0.903970184,-1.18059494,8.547375641,8.675747625
16.61459667,0.788859558,-1.306183777,8.495733032,8.631679745
16.62464767,0.915645905,-1.32100296,8.133785706,8.29107509
16.63469967,0.830023956,-1.369502106,7.748486938,7.912238977
16.64475167,0.630788269,-1.474733276,7.332801361,7.506177981
16.65480367,0.578097839,-1.409768372,7.066505127,7.228909924
16.66485567,0.631536713,-1.240919495,7.244335327,7.376931215
16.67490667,0.523461456,-1.171912994,8.103099518,8.204121754
16.68495867,0.359552307,-1.039588165,9.148675232,9.214568895
16.69501067,0.317340088,-0.728535004,9.414372711,9.44785063
16.70506267,0.243543549,-0.564476166,9.548044739,9.567816111
16.71511467,0.368383942,-0.416284332,9.722581787,9.738459631
16.72516567,0.299227753,-0.320932617,10.03707779,10.0466644
16.73521767,0.357157288,-0.28321106,10.35381912,10.36384775
16.74526967,0.563128967,-0.242795105,10.7946524,10.81205735
16.75532167,0.786763916,-0.20941452,11.26946503,11.29883595
16.76537267,0.992735596,-0.002844086,11.73499695,11.77691324
16.77542467,1.321751404,0.331710205,11.97150513,12.0488171
16.78547667,1.491348724,0.439037018,11.93108917,12.03194761
16.79552867,1.315763855,0.428708496,12.07044937,12.14951742
16.80558067,0.773740997,0.474064178,12.53658005,12.56937752
16.81563167,-0.03397934,0.439486084,12.75048523,12.75810237
16.82568367,-0.743503876,0.452958069,12.90197021,12.93131101
16.83573567,-1.281036072,0.374072113,13.23652451,13.30362974
16.84578767,-1.575024719,0.171543274,13.66613113,13.75766223
16.85583967,-1.452579346,0.101938019,14.08436142,14.15943554
16.86589067,-1.072220306,0.162412262,14.28674057,14.32783969
16.87594267,-0.710422668,0.088166656,14.26338913,14.28134249
16.88599467,-0.563877411,-0.1778302,14.13286057,14.14522284
16.89604667,-0.587977295,-0.607137451,13.8509967,13.87675909
16.90609867,-0.584983521,-1.040635986,13.43950241,13.49241839
16.91614967,-0.466579742,-1.40288269,13.04327637,13.12679835
16.92620167,-0.207917633,-1.669777679,12.7310257,12.84174453
16.93625367,0.042960663,-1.872905273,12.6129213,12.75129026
16.94630567,0.28081604,-2.022743683,12.32387238,12.49192459
16.95635667,0.474962311,-2.146236877,11.96611633,12.16634136
16.96640867,0.565973053,-2.276915131,11.5830629,11.8182915
16.97646067,0.533490601,-2.476150818,11.11214218,11.3971768
16.98651267,0.618813171,-2.352807312,10.80453186,11.07504134
16.99656467,0.749341736,-2.75442215,10.25068359,10.64071748
17.00661567,0.387394409,-3.300336914,10.27837601,10.80219013
17.01666767,0.676742706,-3.2832724,9.961934052,10.51085098
17.02671967,0.977467346,-2.766247559,9.828860779,10.2573911
17.03677167,1.12790451,-2.859503632,9.479487305,9.965420672
17.04682367,0.80382843,-3.097359009,9.593101044,10.1127326
17.05687467,0.610580292,-3.006947021,9.776918793,10.24708152
17.06692667,0.463585968,-2.737207947,9.934690704,10.31529441
17.07697867,0.335003357,-2.45369751,10.26086243,10.55547993
17.08703067,0.138312378,-2.19623291,10.78836548,11.01051311
17.09708167,-0.022303619,-1.983375549,11.54085068,11.71006022
17.10713367,-0.217946777,-1.718725891,12.56202713,12.68093234
17.11718567,-0.264949036,-1.380429382,13.80085098,13.87224824
17.12723767,-0.251327362,-1.067430267,14.98908005,15.02914148
17.13728967,-0.161663818,-0.968935089,16.21323441,16.24296587
17.14734067,-0.029788055,-1.054107971,17.43514343,17.46700482
17.15739267,0.110769653,-1.246607666,18.884729,18.9261536
17.16744467,0.136815491,-1.562750244,20.12804352,20.18908226
17.17749667,0.049696655,-1.943109283,20.59866486,20.69017006
17.18754867,-0.230370941,-2.36118988,20.81780914,20.95255273
17.19759967,-0.550255737,-2.79648468,20.8940007,21.08749329
17.20765167,-0.675994263,-3.192561035,21.36327484,21.61108341
17.21770367,-0.314496002,-3.51379303,22.99039124,23.25948706
17.22775567,0.70323761,-4.076173553,25.08827866,25.42698291
17.23780767,1.884880371,-4.774770813,28.64233795,29.09870674
17.24785867,2.43139389,-5.342390442,30.82000946,31.37396684
17.25791067,3.407813416,-5.185666351,28.6483255,29.31264031
17.26796267,3.882626038,-5.228028259,24.32756058,25.18406774
17.27801467,3.270997925,-5.784570923,19.6292807,20.72364227
17.28806667,2.394420776,-6.760691071,15.4781131,17.0590791
17.29811767,1.109792175,-7.923622742,12.25471619,14.6353512
17.30816967,-1.006057892,-8.544082489,10.51847672,13.58866625
17.31822167,-3.748654633,-9.285341034,10.78582077,14.71746919
17.32827367,-2.767744446,-6.348448334,11.75774963,13.64580089
17.33832467,1.062939606,-1.559157715,10.45964905,10.62850279
17.34837667,3.126398621,0.28785141,7.72842865,8.341812523
17.35842867,4.345613251,0.500559082,6.07631424,7.487089465
17.36848067,5.222190399,0.526604919,5.875731354,7.878629592
17.37853267,5.270539856,0.782872009,6.339916077,8.281667393
17.38858367,4.352349243,0.123642883,6.325545959,7.679242357
17.39863567,3.323239288,-0.920735321,6.361321564,7.235888676
17.40868767,2.685415649,-2.206411743,5.930816803,6.874176165
17.41873967,2.861748962,-3.268153839,5.218448181,6.789892345
17.42879167,3.491339722,-3.224893799,4.32465683,6.425889025
17.43884267,4.345313873,-2.086660767,4.597838745,6.661533377
17.44889467,5.180127869,-0.461789703,6.342909851,8.202406954
17.45894667,4.991370392,0.502654724,8.46085556,9.836285731
17.46899867,4.346960449,-0.069455566,9.715845795,10.6441791
17.47905067,3.325035553,-1.048719177,6.842870178,7.679879271
17.48910167,1.766925659,-1.941762085,5.528453522,6.120152336
17.49915367,0.193846893,-3.043770447,2.955753479,4.247186572
17.50920567,-0.333057404,-3.099005585,0.705932007,3.195794556
17.51925767,-0.231867828,-2.273023224,-0.377664642,2.315821204
17.52930867,-0.02574646,-0.983903961,-1.199455719,1.551587544
17.53936067,-0.661025391,0.038170624,-1.552571411,1.687865383
17.54941267,-1.860780487,0.225131836,-1.083297272,2.164883679
17.55946467,-1.499282227,-0.106129303,-0.205372925,1.516999889
17.56951667,-1.379680939,-0.372275848,0.191002808,1.4417319
17.57956767,-1.58550293,-0.367036743,0.396076355,1.674936414
17.58961967,-1.973047028,-0.95830719,0.369581451,2.224378046
17.59967167,-2.658022614,0.57450531,1.206940155,2.975205052
17.60972367,-2.126328278,4.668791199,1.940265198,5.484843866
17.61977567,0.029189301,4.80081665,2.431543579,5.381551514
17.62982667,0.867895203,2.480192413,1.656455383,3.106193962
17.63987867,0.846040649,0.51253418,0.677640839,1.199030096
17.64993067,0.564326477,-0.21300705,0.118852844,0.614786446
17.65998267,0.192799072,0.238005066,0.158370667,0.344817577
17.67003467,-0.49142807,0.781524811,0.095202026,0.928087282
17.68008567,-1.323098602,0.901275787,-0.156873779,1.608569967
17.69013767,-2.250869293,0.78751236,-0.327369232,2.40702283
17.70018967,-2.992876282,0.565973053,-0.325572968,3.063271404
17.71024167,-3.394940186,0.22588028,-0.210162964,3.408930805
17.72029267,-3.367397461,-0.181422729,-0.0490979,3.372638503
17.73034467,-2.953807526,-0.512384491,0.135168915,3.000964412
17.74039667,-2.228865051,-0.53004776,0.335452423,2.315452088
17.75044867,-1.459315338,-0.150287476,0.551303558,1.567202347
17.76050067,-0.690514069,0.395926666,0.727038116,1.078031552
17.77055167,0.048199768,0.892144775,0.898431702,1.267053685
17.78060396,0.579295349,1.089733887,1.105600891,1.656941875
17.79065596,1.92005722,1.484013977,3.212769012,4.026264018
17.80070796,1.727258148,1.934277649,3.3230896,4.215183889
17.81075996,0.579744415,2.013163605,2.894979858,3.573491243
17.82081096,0.587228851,2.291734314,2.966980133,3.794714087
17.83086296,0.773591309,2.226919098,2.847079468,3.696413624
17.84091496,0.711769867,2.147733765,2.939138031,3.709165544
17.85096696,0.619561615,2.143991547,3.175795898,3.88152495
17.86101896,0.593515778,2.206411743,3.524121552,4.199993627
17.87106996,0.51597702,2.425106964,4.027524719,4.729517041
17.88112196,0.331410828,2.838547211,4.592150574,5.408791944
17.89117396,0.078736267,3.425925751,4.829257507,5.921561848
17.90122596,-0.183518372,4.087849274,4.599036255,6.155917897
17.91127696,-0.131277008,4.856051788,4.119583282,6.369414341
17.92132896,0.004340973,5.346432037,3.65539856,6.476595788
17.93138096,0.148191833,5.490731964,2.86549118,6.195251248
17.94143296,0.209713898,5.450166321,1.886976013,5.771392494
17.95148496,-0.431702271,4.457430725,1.165177002,4.627385111
17.96153596,-1.20753891,3.332819366,0.715512085,3.61632309
17.97158796,-1.694775696,2.826721802,0.456101532,3.327258543
17.98163996,-1.904788971,2.980601807,0.520317993,3.575323617
17.99169196,-1.721120911,3.267854462,0.775686951,3.773966112
18.00174396,-1.475631409,3.010389862,1.509910126,3.676923138
18.01179496,-1.650168457,2.29802124,2.582878876,3.830825087
18.02184696,-2.259251862,1.333127747,3.464844818,4.345871394
18.03189896,-2.662363586,0.195493469,4.14443161,4.92977798
18.04195096,-2.56716156,-1.090033264,4.554279327,5.340407399
18.05200296,-2.084116058,-2.058668976,4.961732025,5.761982505
18.06205396,-1.449136505,-2.402354279,6.075266418,6.691798319
18.07210596,-0.389789429,-2.573298798,7.233258362,7.687251071
18.08215796,0.327069855,-2.463127899,7.912994843,8.293941229
18.09220996,0.032033386,-1.822460175,7.874824219,8.083021941
18.10226096,-1.061143341,-2.53677475,7.559579773,8.044159227
18.11231296,-2.867586823,-4.291725311,7.885601807,9.424684408
18.12236496,-3.129392395,-4.500541077,8.465495911,10.08526587
18.13241696,-2.554138641,-3.68114502,8.907975769,9.971283025
18.14246896,-1.87335434,-3.150648193,9.262588348,9.961505079
18.15251996,-1.833986206,-3.458557892,10.77848602,11.46738371
18.16257196,-1.688039703,-4.223167877,11.73664352,12.58703405
18.17262396,-1.655856628,-5.067711639,12.68821472,13.76278879
18.18267596,-2.574496307,-6.27046051,14.60931976,16.10524542
18.19272796,-3.260370026,-7.456144867,16.5224913,18.41783993
18.20277896,-2.200274506,-7.339387665,16.91347824,18.56807921
18.21283096,-1.13613739,-6.904092865,18.61169678,19.88347463
18.22288296,-0.521665192,-6.658453674,20.73682755,21.78584762
18.23293496,-0.208965454,-6.792874146,22.50150787,23.50541772
18.24298696,-0.429606628,-7.095694427,24.90805344,25.90259769
18.25303796,-0.905916138,-6.604715424,26.62228867,27.44429273
18.26308996,-1.491648102,-5.334756317,27.64286636,28.19242274
18.27314196,-1.878593445,-4.18544632,27.45276169,27.83345466
18.28319396,-1.780397644,-3.851041718,25.52806412,25.87822242
18.29324496,-1.603764954,-4.059258728,22.84639069,23.25956171
18.30329696,-1.788929901,-4.420008545,21.32645142,21.85301525
18.31334896,-1.821112976,-4.764142914,20.79625397,21.41255915
18.32340096,-1.431622925,-4.740342407,19.82627106,20.43529825
18.33345296,-0.712967377,-4.176315308,18.25349167,18.73872701
18.34350396,-0.324225769,-3.081492004,17.26749207,17.54328925
18.35355596,-0.02335144,-1.801503754,16.8568959,16.95290242
18.36360796,0.530945892,-0.829425201,16.49524796,16.52461966
18.37365996,1.056502991,0.006735992,15.39204208,15.4282599
18.38371196,1.36665802,0.554896088,13.3957933,13.47675562
18.39376296,2.004781036,1.316512299,11.39475449,11.64443135
18.40381496,2.21614151,1.20050354,8.228538666,8.605889874
18.41386696,1.635349274,0.797242126,6.390061798,6.644008733
18.42391896,0.908311157,0.727038116,5.951473846,6.064128505
18.43396996,0.365390167,0.8108638,5.97796875,6.043767075
18.44402196,0.511935425,1.466201019,6.56534729,6.74652565
18.45407396,0.765358429,1.456620941,6.38048172,6.58923858
18.46412596,1.232985992,1.522633667,6.901248779,7.173973965
18.47417796,2.4724086,2.47121109,9.012907562,9.667067356
18.48422896,3.828139343,3.442840576,10.98939743,12.13567707
18.49428096,3.277733917,3.176694031,10.19514908,11.17031733
18.50433296,2.269730072,2.569107513,8.780590668,9.426068135
18.51438496,1.440903625,2.097887421,8.38720871,8.764850531
18.52443696,0.639919281,1.709894257,8.65859436,8.848982504
18.53448796,0.061671753,1.315464478,9.041498108,9.136899815
18.54453996,-0.307909698,0.72898407,9.107361145,9.141676716
18.55459196,-0.40490799,0.056582336,9.089997253,9.099186893
18.56464396,-0.19070343,-0.449664917,9.213191071,9.226128984
18.57469596,0.527353363,-0.753233643,9.874665527,9.917382808
18.58474696,1.440304871,-0.856818237,10.92054062,11.04838554
18.59479896,1.950294342,-0.91729248,11.24341919,11.44812424
18.60485096,1.808389435,-0.924926605,10.86964645,11.05780157
18.61490296,1.276096344,-1.346899109,10.75438614,10.91326625
18.62495396,0.933907928,-1.252894592,11.34026779,11.44742777
18.63500596,0.579295349,-0.785416718,11.94186676,11.98167953
18.64505796,0.134869537,-0.88346283,12.20352264,12.23620289
18.65510996,-0.182171173,-1.353635101,12.024944,12.10226394
18.66516196,-0.163310394,-1.66498764,11.56989029,11.69021879
18.67521296,0.220042419,-1.412612457,11.26063339,11.35102449
18.68526496,0.633782043,-0.914897461,11.16528168,11.22061638
18.69531696,1.124910736,-0.505798187,10.87533463,10.94505181
18.70536896,1.209784241,-0.074095917,10.28615982,10.35732359
18.71542096,1.229692841,0.183218994,9.798623657,9.877182759
18.72547196,1.304387512,0.455951843,9.169182587,9.272714175
18.73552396,1.822909241,0.979712677,7.293882294,7.581790946
18.74557596,2.194436646,1.276994476,8.053552551,8.444286576
18.75562796,2.422262878,1.265767822,10.55500076,10.90309895
18.76567996,2.251168671,0.853375397,11.2459639,11.50077015
18.77573121,1.747166748,0.227526855,12.51936584,12.64274026
18.78578321,1.271006927,-0.335751801,13.46030914,13.52435248
18.79583521,0.823587341,-0.816551971,13.76327911,13.81205652
18.80588721,0.46807663,-1.12446167,13.95772476,14.01076694
18.81593921,0.308658142,-1.306782532,14.08735519,14.15120231
18.82599021,0.499960327,-1.332528992,13.86955811,13.94238989
18.83604221,0.805175629,-1.101259918,13.1955098,13.26584185
18.84609421,0.991238708,-0.467477875,12.04126007,12.09103113
18.85614621,0.966839447,0.149539032,11.25269989,11.29514919
18.86619721,0.71491333,0.473764801,10.63972458,10.67423502
18.87624921,0.277822266,0.573158112,10.12240036,10.14242005
18.88630121,-0.155825958,0.587228851,9.944869537,9.963410539
18.89635321,-0.308807831,0.74889267,9.850116577,9.883369825
18.90640521,-0.289647675,0.977916412,9.693392487,9.746900748
18.91645621,-0.177979889,1.219963074,9.404193878,9.484663897
18.92650821,-0.149089966,1.453327789,9.062753906,9.179754781
18.93656021,-0.476159821,1.616937561,8.926686859,9.084434684
18.94661221,-0.908460846,1.55616394,8.65979187,8.84527798
18.95666421,-1.368603973,1.497036896,8.660690002,8.895040619
18.96671521,-1.746118927,1.476230164,8.917555847,9.20603004
18.97676721,-2.096989288,1.388512573,9.126221924,9.466427935
18.98681921,-2.380499725,1.269360352,9.295669556,9.679231743
18.99687121,-2.571652222,1.128054199,9.447154541,9.855690252
19.00692221,-2.703527985,1.090781708,9.532028046,9.96786973
19.01697421,-2.883453827,0.914598083,9.481433258,9.952304871
19.02702621,-2.917582855,0.666713562,9.594897308,10.05081345
19.03707821,-2.892135773,0.487985229,9.69069809,10.12483128
19.04713021,-2.733465729,0.234711914,9.576784973,9.962014605
19.05718121,-2.475252686,-0.015417938,9.275760956,9.600357018
19.06723321,-2.237846375,-0.233664093,8.914262695,9.193836778
19.07728521,-1.989662476,-0.384700012,8.612490234,8.847696813
19.08733721,-1.525028687,-0.413140869,8.356073456,8.504137903
19.09738921,-0.96654007,-0.44816803,8.262667694,8.331070262
19.10744021,-0.639320526,-0.505049744,8.168812866,8.209342825
19.11749221,-0.376467133,-0.542322235,8.038134613,8.065199871
19.12754421,-0.159418488,-0.556542664,7.730973358,7.752619109
19.13759621,-0.042212219,-0.621507568,7.310348053,7.336841431
19.14764821,0.248782654,-0.76520874,7.066804504,7.112465334
19.15769921,0.497415619,-0.722397766,6.456373901,6.515676848
19.16775121,0.775986328,-0.519270172,5.925577698,5.998688802
19.17780321,0.975072327,-0.421373749,5.670059052,5.768699292
19.18785521,1.135987701,-0.337398376,5.58129364,5.705711561
19.19790621,1.493893433,-0.173638916,5.570216675,5.769677796
19.20795821,1.538201294,0.054037628,5.538782043,5.748659827
19.21801021,1.359173584,0.380658417,5.767057343,5.937272442
19.22806221,1.005608826,0.655187531,6.032754822,6.15098777
19.23811421,0.550106049,0.739761658,6.280639343,6.347936242
19.24816521,0.178428955,0.621806946,6.549031219,6.580903485
19.25821721,0.027393036,0.462687836,6.914271698,6.929789573
19.26826921,0.048648834,0.441881104,7.359296265,7.372710976
19.27832121,0.40715332,0.493224335,7.740254059,7.76663228
19.28837321,1.023272095,0.458346863,8.002059631,8.080230564
19.29842421,0.912352753,0.417032776,8.483608246,8.542711089
19.30847621,0.683778076,0.267793121,8.95587616,8.985932528
19.31852821,0.47735733,0.252524872,9.245224457,9.26098343
19.32858021,0.026045837,0.162861328,9.617051239,9.618465404
19.33863121,-0.222587128,-0.000898132,9.79248642,9.795015881
19.34868321,-0.485889587,-0.060923309,10.0966539,10.10852216
19.35873521,-0.917891235,-0.318537598,10.7163652,10.76031941
19.36878721,-1.081950073,-0.654289398,10.95571747,11.0284385
19.37883921,-1.190624084,-0.945883026,11.28099106,11.3830154
19.38889021,-1.076112213,-1.299148407,11.83573746,11.95535383
19.39894221,-0.870739288,-1.662592621,12.68252655,12.82064276
19.40899421,-0.620310059,-1.838925934,13.08279419,13.22595694
19.41904621,0.096998291,-1.752555542,13.29654968,13.41190117
19.42909821,1.334025879,-1.403481445,14.13525558,14.26726448
19.43914921,2.977757721,-0.504151611,15.26854889,15.56437583
19.44920121,4.98104187,0.876726837,15.77389801,16.56488112
19.45925321,6.197562103,2.195484467,15.76850922,17.0843733
19.46930521,5.572761383,3.000809784,15.49862045,16.74119962
19.47935721,3.840563507,3.436703339,15.38665329,16.22682832
19.48940821,2.527793427,4.316573639,15.71507034,16.49199756
19.49946021,2.367626495,5.32742157,16.83129913,17.81234702
19.50951221,2.913840637,5.886359253,18.32519257,19.46669913
19.51956421,3.368594971,5.92527832,18.93622192,20.12552747
19.52961621,3.56528595,5.501210175,18.87694519,19.98283356
19.53966721,3.81796051,4.899012451,18.21756638,19.24725617
19.54971921,4.205504608,4.192930756,17.48843262,18.46922339
19.55977121,4.404889984,3.324885864,17.93615158,18.76601863
19.56982321,4.487069092,2.357148285,17.94034286,18.64258134
19.57987421,3.996539154,1.13029953,17.72778488,18.20780764
19.58992621,4.977299652,0.3065625,16.04019424,16.79747969
