"Time (s)","Linear Acceleration x (m/s^2)","Linear Acceleration y (m/s^2)","Linear Acceleration z (m/s^2)","Absolute acceleration (m/s^2)"
1.134916674E-3,1.042034056E0,-4.912345272E-1,-3.205603250E0,3.406323315E0
1.110591667E-2,1.559958783E0,-4.865775123E-1,-3.289500269E0,3.673015260E0
2.107591665E-2,1.890982525E0,-5.372105992E-1,-3.222827393E0,3.775053184E0
3.104591666E-2,1.736880911E0,-4.804154241E-1,-2.945757664E0,3.453265483E0
4.101591665E-2,1.365394144E0,-3.542681783E-1,-2.477109761E0,2.850592900E0
5.098591666E-2,8.765677929E-1,-2.076843292E-1,-1.893926014E0,2.097250491E0
6.095591665E-2,4.446725643E-1,-7.356498957E-2,-1.620659899E0,1.682166461E0
7.092591666E-2,2.414291954E-1,-8.201743215E-2,-1.580081976E0,1.600523029E0
8.089691665E-2,3.709850755E-1,-1.805523714E-1,-1.364590445E0,1.425600283E0
9.086691667E-2,5.975863168E-1,-2.624309322E-1,-1.053820288E0,1.239563068E0
1.008369167E-1,5.275618163E-1,-3.707400772E-1,-3.922031593E-1,7.547138484E-1
1.108069167E-1,4.478601739E-1,-7.891823244E-1,-3.784505081E-1,9.831644133E-1
1.207769167E-1,1.689371699E-1,-1.227138777E0,-4.016604459E-1,1.302205997E0
1.307469167E-1,-2.761078620E-1,-1.227829918E0,-1.829301417E-1,1.271717459E0
1.407169166E-1,-1.638821058E-1,-6.552989200E-1,-4.650466025E-1,8.200868013E-1
1.506879167E-1,8.624175310E-2,-1.551304320E-1,-9.098501444E-2,1.994526604E-1
1.606579167E-1,7.487637386E-2,6.513038099E-2,3.900151312E-1,4.024428413E-1
1.706279167E-1,-2.364393277E-1,1.589460325E-1,6.134103441E-1,6.763428474E-1
1.805979167E-1,-5.173537472E-1,3.892088002E-1,1.105241872E0,1.280897336E0
1.905679167E-1,-5.094738932E-1,3.837831688E-1,1.295832451E0,1.444311223E0
2.005379167E-1,-3.832738763E-1,1.460666630E-1,9.285752678E-1,1.015128742E0
2.105079167E-1,-2.444734021E-1,9.112154692E-2,3.125558960E-1,4.071382674E-1
2.204789167E-1,-3.926772223E-1,-8.270886540E-4,-5.290139723E-1,6.588261287E-1
2.304489167E-1,-1.860646878E-1,3.391724217E-1,-1.858809391E0,1.898639079E0
2.404189167E-1,2.196358918E-1,8.811213121E-1,-2.634135568E0,2.786267195E0
2.503889167E-1,-1.627850220E-1,1.320046356E0,-2.430348993E0,2.770490493E0
2.603589167E-1,-5.992647600E-1,1.682547121E0,-1.840842651E0,2.564914177E0
2.703289167E-1,-1.316613602E0,1.863653516E0,-7.651783347E-1,2.406693518E0
2.802989167E-1,-1.310313958E0,1.710698833E0,-2.531668961E-1,2.169678926E0
2.902699167E-1,-9.010602444E-1,1.043311672E0,4.939476353E-1,1.464374636E0
3.002399167E-1,-2.303640707E-1,1.884370494E-1,7.794443715E-1,8.343318613E-1
3.102099167E-1,1.085450801E-1,-3.759128165E-1,-5.119705081E-2,3.946056488E-1
3.201799167E-1,-2.460118922E0,-6.985422957E-1,5.574671084E-1,2.617425458E0
3.301499167E-1,-4.301226452E0,6.221612871E-2,6.798908472E-2,4.302213657E0
3.401199167E-1,-3.247798220E0,1.310191166E0,-6.602143818E-1,3.563800948E0
3.500899167E-1,-1.627474390E0,1.844376708E0,-1.200279592E0,2.736981810E0
3.600609167E-1,-6.998883247E-1,1.942752603E0,-1.633030853E0,2.632664261E0
3.700309167E-1,-6.287325342E-1,1.879719326E0,-1.681308389E0,2.599124322E0
3.800009167E-1,-5.977033342E-1,1.807882774E0,-1.692865995E0,2.547839217E0
3.899709167E-1,-3.894570876E-1,1.740945603E0,-1.672796597E0,2.445570868E0
3.999409167E-1,9.729174815E-2,1.828297742E0,-1.673401784E0,2.480405581E0
4.099109167E-1,5.967505304E-1,1.954945802E0,-1.641881783E0,2.621774223E0
4.198809167E-1,8.917478956E-1,1.906906832E0,-1.116447476E0,2.382847654E0
4.298509167E-1,9.483161987E-1,1.788155730E0,-6.172309148E-1,2.116076211E0
4.398219167E-1,1.094974746E0,1.693334650E0,9.012313485E-3,2.016539896E0
4.497919166E-1,1.550360725E0,1.383631902E0,8.851468277E-1,2.258659010E0
4.597619167E-1,1.812058124E0,6.836801353E-1,1.507362494E0,2.454203508E0
4.697319167E-1,1.784347438E0,1.409930339E-1,1.806979671E0,2.543413130E0
4.797019167E-1,1.533956508E0,-1.860250729E-1,1.689789775E0,2.289763608E0
4.896719167E-1,1.211620266E0,-4.630565026E-1,1.373326185E0,1.889039387E0
4.996419167E-1,9.349021744E-1,-7.242416856E-1,9.320391583E-1,1.505744031E0
5.096129166E-1,8.189994697E-1,-9.217992219E-1,7.622746074E-1,1.449667725E0
5.195829167E-1,9.891592193E-1,-9.227529028E-1,1.061721046E0,1.719639631E0
5.295529166E-1,1.598600547E0,-6.570603937E-1,1.575779010E0,2.338873993E0
5.395229167E-1,2.142704282E0,-3.797395268E-1,1.876011899E0,2.873117539E0
5.494929167E-1,2.452607589E0,-1.796749967E-1,1.803247393E0,3.049470159E0
5.594629167E-1,2.655195192E0,1.498901573E-1,1.741059916E0,3.178650374E0
5.694329167E-1,2.478315749E0,4.460013440E-1,1.801751091E0,3.096332209E0
5.794039167E-1,1.943477658E0,6.668682209E-1,1.909956740E0,2.805308072E0
5.893739166E-1,9.895910362E-1,8.887183070E-1,2.583709180E0,2.905970368E0
5.993439167E-1,5.115910238E-1,1.041687900E0,4.311778922E0,4.465229729E0
6.093139166E-1,1.085604583E0,1.012635425E0,6.507893718E0,6.675076664E0
6.192839167E-1,2.366274327E0,7.290472198E-1,8.290787539E0,8.652625154E0
6.292539166E-1,3.033516185E0,5.293531108E-1,9.036306365E0,9.546584095E0
6.392239167E-1,2.759396961E0,6.873521867E-1,8.880527185E0,9.324724537E0
6.491949167E-1,2.060744153E0,8.197457206E-1,8.217999644E0,8.512001390E0
6.591649167E-1,1.405244381E0,6.084244233E-1,7.030362318E0,7.195198841E0
6.691349167E-1,7.973217217E-1,3.202420610E-1,5.999869496E0,6.061081659E0
6.791049167E-1,4.208741042E-1,1.413535148E-1,5.403517234E0,5.421726139E0
6.890749166E-1,2.215846226E-1,-3.922780037E-2,4.865769861E0,4.870970633E0
6.990449167E-1,-9.916885056E-2,-3.032059059E-1,3.585593914E0,3.599757214E0
7.090149166E-1,-3.634474298E-1,-4.135130444E-1,1.772275277E0,1.855814303E0
7.189859167E-1,-4.157371791E-1,-1.906861809E-1,-5.170657718E-1,6.903300906E-1
7.289559167E-1,-5.509071171E-1,-3.086484942E-1,-2.456308292E0,2.536180784E0
7.389259167E-1,-8.252628610E-1,-1.506877175E-1,-3.250352576E0,3.356867207E0
7.488959167E-1,-5.764619346E-1,-1.177746177E-1,-3.922587664E0,3.966468606E0
7.588659167E-1,2.627424426E-2,-5.973182219E-1,-4.519602415E0,4.558978546E0
7.688359166E-1,7.183908154E-1,-1.086566450E0,-4.981093326E0,5.148592306E0
7.788059167E-1,1.106854388E0,-1.600234990E0,-5.762264965E0,6.081905637E0
7.887759166E-1,1.155029305E0,-1.945175397E0,-7.008538170E0,7.364605034E0
7.987469167E-1,1.097469899E0,-2.296201294E0,-8.248095263E0,8.631804912E0
8.087169167E-1,1.067303017E0,-2.558806766E0,-9.011058673E0,9.427926930E0
8.186869167E-1,1.141708763E0,-2.694608642E0,-9.117772697E0,9.575917376E0
8.286569167E-1,1.112710886E0,-2.941196836E0,-8.910205312E0,9.448837127E0
8.386269167E-1,9.971343099E-1,-3.266261972E0,-8.475870041E0,9.138003997E0
8.485969167E-1,8.761153646E-1,-3.621661002E0,-8.007235587E0,8.831751145E0
8.585669167E-1,8.396240611E-1,-3.774261636E0,-7.542276692E0,8.475609546E0
8.685379167E-1,1.027800617E0,-3.690562545E0,-7.180843921E0,8.138866347E0
8.785079167E-1,1.376144104E0,-3.480251062E0,-7.090171732E0,8.017259834E0
8.884779167E-1,1.675074818E0,-3.316439854E0,-7.324115322E0,8.212631381E0
8.984479167E-1,1.760284392E0,-3.428918063E0,-7.720406855E0,8.629064968E0
9.084179167E-1,1.586460850E0,-3.531187912E0,-8.074801918E0,8.954807206E0
9.183879167E-1,1.470754392E0,-3.185548762E0,-8.244327317E0,8.959898008E0
9.283579167E-1,1.555753758E0,-2.340153937E0,-8.129901985E0,8.601860060E0
9.383289167E-1,1.859919192E0,-1.231317489E0,-7.279023349E0,7.613121770E0
9.482989167E-1,2.329495925E0,-4.953240699E-1,-5.750085799E0,6.223775695E0
9.582689167E-1,2.832334544E0,6.142704695E-2,-2.688060345E0,3.905324656E0
9.682389167E-1,3.068931600E0,5.782332024E-1,-1.939302746E0,3.676083506E0
9.782089167E-1,3.373783205E0,1.234596608E0,-1.279960184E0,3.813782895E0
9.881789167E-1,3.601542487E0,2.312486959E0,-1.434861113E0,4.514147831E0
9.981489167E-1,3.512480038E0,3.291922478E0,-2.700482755E0,5.519680854E0
1.008118917E0,3.115878018E0,4.239510260E0,-3.502447677E0,6.320544502E0
1.018089917E0,2.503297101E0,4.906189324E0,-3.709997520E0,6.640878832E0
1.028059917E0,1.702946156E0,5.283435305E0,-3.226011202E0,6.420425415E0
1.038029917E0,1.580953065E0,4.720176530E0,-1.955289034E0,5.348143068E0
1.047999917E0,2.313227071E0,3.645110384E0,9.458631456E-2,4.318193576E0
1.057969917E0,3.432403296E0,3.241391133E0,2.366462899E0,5.280923737E0
1.067939917E0,3.933298301E0,3.074652516E0,3.552186432E0,6.127181413E0
1.077909917E0,2.385707548E0,2.638003501E0,3.671988280E0,5.112158145E0
1.087880917E0,9.791090251E-1,2.631644947E0,4.475079376E0,5.283043160E0
1.097850917E0,1.613458175E0,2.970684637E0,5.100232099E0,6.118870971E0
1.107820917E0,2.707078414E0,3.217649099E0,5.191015384E0,6.680432619E0
1.117790917E0,2.769290450E0,2.698598782E0,5.480228026E0,6.707033934E0
1.127760917E0,1.358831522E0,2.332120009E0,4.127687523E0,4.931836487E0
1.137730917E0,-5.328281841E-1,2.224247797E0,1.575604763E0,2.777357468E0
1.147700917E0,-2.316397431E0,2.160683886E0,-6.378628153E-1,3.231272332E0
1.157671917E0,-2.633006178E0,2.561758148E0,-1.820472121E0,4.099932327E0
1.167641917E0,-2.036520454E0,3.166327794E0,-6.497110283E-1,3.820362768E0
1.177611917E0,-5.878517260E-1,3.388702376E0,5.334783799E0,6.347345242E0
1.187581917E0,1.121287947E0,2.791708090E0,8.749483480E0,9.252263609E0
1.197551917E0,2.428206281E0,1.069846337E0,1.292349732E1,1.319308683E1
1.207521917E0,-3.696283753E-1,-2.032549537E-1,1.523774576E1,1.524358335E1
1.217491917E0,-3.284657021E0,-1.865816840E0,1.524826841E1,1.570923084E1
1.227461917E0,-4.422769600E0,-2.676249262E0,1.363862115E1,1.458544439E1
1.237432917E0,-4.474379464E0,-2.240357754E0,1.098919161E1,1.207483361E1
1.247402917E0,-3.308720067E0,-1.268717304E0,8.346858829E0,9.067928340E0
1.257372917E0,-1.624479592E0,-3.403430708E-1,6.499884202E0,6.708447063E0
1.267342917E0,-3.435398898E-1,2.119428563E-1,6.278508618E0,6.291471203E0
1.277312917E0,-4.261490967E-1,-2.096850271E-1,7.630873119E0,7.645638981E0
1.287282917E0,-1.239427578E0,-1.920591364E0,1.006213779E1,1.031850128E1
1.297252917E0,-1.023673287E0,-3.837380868E0,1.303827700E1,1.362974930E1
1.307223917E0,2.921037244E-1,-5.381434055E0,1.487229712E1,1.581867184E1
1.317193917E0,1.834927315E0,-5.527053114E0,1.431698471E1,1.545610965E1
1.327163917E0,4.126279514E0,-4.217477659E0,1.135137048E1,1.279323698E1
1.337133917E0,6.440296397E0,-2.610800792E0,7.887449527E0,1.051216241E1
1.347103917E0,7.571546685E0,-1.322986336E0,4.691038100E0,9.004690472E0
1.357073917E0,6.984585636E0,-7.492414561E-1,2.339358716E0,7.403944791E0
1.367043917E0,4.716261234E0,-1.928344479E0,1.414170156E0,5.287864379E0
1.377013917E0,1.934799221E0,-4.440448949E0,1.855772932E0,5.186996054E0
1.386984917E0,-3.813323084E-1,-5.984301285E0,2.588940099E0,6.531453669E0
1.396954917E0,-1.251941935E0,-6.033582788E0,2.304426280E0,6.578895070E0
1.406924917E0,-1.000967306E0,-5.640775026E0,7.066822046E-1,5.772320000E0
1.416894917E0,-6.343427914E-1,-4.777689158E0,-1.061663159E0,4.935162929E0
1.426864917E0,-5.915598840E-1,-4.204294235E0,-2.464527138E0,4.909167661E0
1.436834917E0,-3.438137953E-1,-3.843373971E0,-3.567009709E0,5.254834885E0
1.446804917E0,3.426705185E-1,-3.045712307E0,-4.530667686E0,5.469985029E0
1.456775917E0,7.596617791E-1,-2.041997979E0,-5.448544303E0,5.868004498E0
1.466745917E0,3.788383978E-1,-1.900276090E0,-6.384195871E0,6.671770730E0
1.476715917E0,-4.826103958E-1,-2.510038941E0,-7.553626723E0,7.974364235E0
1.486685917E0,-1.595856594E0,-2.897863120E0,-8.480668851E0,9.103082615E0
1.496655917E0,-2.253911600E0,-3.054056284E0,-9.646953315E0,1.036682620E1
1.506625917E0,-2.199789479E0,-3.332635472E0,-1.117128911E1,1.186352533E1
1.516595917E0,-2.164823714E0,-3.530162018E0,-1.210249913E1,1.279136391E1
1.526565917E0,-2.096911228E0,-3.537187447E0,-1.292904048E1,1.356719645E1
1.536536917E0,-1.841759348E0,-3.532639191E0,-1.350253540E1,1.407799983E1
1.546506917E0,-1.331476931E0,-3.262166583E0,-1.398335545E1,1.442042965E1
1.556476917E0,-2.546676388E-1,-2.802232493E0,-1.443414888E1,1.470584973E1
1.566446917E0,9.648695932E-1,-2.308793273E0,-1.475824367E1,1.496887624E1
1.576416917E0,1.646841684E0,-2.454409408E0,-1.467067811E1,1.496546054E1
1.586386917E0,1.830615286E0,-3.051212198E0,-1.394210334E1,1.438899905E1
1.596356917E0,1.905615913E0,-3.306634073E0,-1.259603571E1,1.316150890E1
1.606327917E0,2.204914710E0,-3.737093810E0,-1.159465676E1,1.237996706E1
1.616297917E0,2.504399594E0,-4.631741779E0,-1.049395817E1,1.174087762E1
1.626267917E0,2.437263910E0,-5.491268739E0,-9.684711125E0,1.139683804E1
1.636237917E0,2.878977783E0,-6.042750052E0,-1.028039213E1,1.226742856E1
1.646207917E0,3.817436307E0,-5.851009326E0,-1.044114027E1,1.256282374E1
1.656177917E0,5.119491073E0,-4.414935501E0,-1.100153391E1,1.291257498E1
1.666147917E0,6.221380152E0,-3.339010691E0,-1.135090505E1,1.336778249E1
1.676117917E0,7.116026950E0,-3.360985112E0,-1.105420329E1,1.356943149E1
1.686088917E0,8.474573713E0,-3.477622738E0,-9.845156969E0,1.344765315E1
1.696058917E0,9.115770611E0,-4.087351676E0,-8.584751043E0,1.317200319E1
1.706028917E0,9.538630722E0,-4.896037388E0,-8.356586257E0,1.359371884E1
1.715998917E0,1.014349361E1,-5.471846627E0,-6.530957476E0,1.324707415E1
1.725968917E0,1.050549122E1,-5.667667540E0,-3.949102448E0,1.257311462E1
1.735938917E0,1.058818371E1,-4.744148360E0,-2.714461108E0,1.191574073E1
1.745908917E0,1.258558907E1,-2.335331154E0,-9.236589289E-1,1.283370444E1
1.755879917E0,1.806326069E1,-4.820035279E-1,7.530418539E0,1.957602916E1
1.765849917E0,2.620223873E1,-1.670525685E0,2.166914503E1,3.404261765E1
1.775819917E0,3.040037584E1,-3.589565928E0,3.302021848E1,4.502668834E1
1.785789917E0,2.691500262E1,-4.421504263E0,3.558901726E1,4.483910364E1
1.795759917E0,1.960084686E1,-4.870213745E0,2.863305023E1,3.503945983E1
1.805729917E0,1.231314507E1,-4.978014182E0,1.859792074E1,2.285337661E1
1.815699917E0,7.867556130E0,-5.281967070E0,9.749751459E0,1.359614905E1
1.825669917E0,5.698313967E0,-5.183483586E0,4.124379169E0,8.737836556E0
1.835640917E0,4.813242568E0,-5.148928295E0,1.480727257E0,7.202174659E0
1.845610917E0,4.644805335E0,-4.827562400E0,6.494970202E-1,6.730633083E0
1.855580917E0,4.377699847E0,-4.033049169E0,6.865291911E-1,5.991749650E0
1.865550917E0,3.741071379E0,-3.792806666E0,1.149089558E0,5.449899474E0
1.875520917E0,2.527875288E0,-4.049971011E0,1.441070856E0,4.986893208E0
1.885490917E0,2.834367621E-1,-4.560765936E0,1.673742092E0,4.866449929E0
1.895460917E0,-2.202915108E0,-5.302039976E0,1.745186881E0,6.000844951E0
1.905432333E0,-4.592039477E0,-5.800665969E0,2.162478104E0,7.707844302E0
1.915402333E0,-6.389730261E0,-6.143799294E0,2.783233720E0,9.290926354E0
1.925372333E0,-7.272015461E0,-6.403635525E0,3.247020248E0,1.021919259E1
1.935342333E0,-7.538646156E0,-6.410118917E0,3.442961029E0,1.047734657E1
1.945312333E0,-7.411232988E0,-6.143347889E0,3.256651781E0,1.016232643E1
1.955282333E0,-6.992048437E0,-5.782922593E0,2.777842003E0,9.489327755E0
1.965252333E0,-6.152619234E0,-5.253867105E0,2.327899635E0,8.418845510E0
1.975222333E0,-4.921361094E0,-4.467238845E0,2.235277108E0,7.012309296E0
1.985193333E0,-3.976653358E0,-3.855638506E0,2.395225207E0,6.034635367E0
1.995163333E0,-3.467788891E0,-3.356851130E0,2.862404435E0,5.611360660E0
2.005133333E0,-3.165943925E0,-2.701520051E0,3.539166437E0,5.463250918E0
2.015103333E0,-2.954961766E0,-2.165206707E0,4.265021662E0,5.622306368E0
2.025073333E0,-2.504272417E0,-1.868602892E0,5.068185264E0,5.953953222E0
2.035043333E0,-1.866339435E0,-1.714389596E0,6.139748343E0,6.642203271E0
2.045013333E0,-1.652761697E0,-1.233009381E0,7.357307042E0,7.640804949E0
2.054984333E0,-1.246419970E0,-1.412476802E-1,8.195920558E0,8.291358601E0
2.064954333E0,-3.506078213E-1,1.887959515E0,8.691716498E0,8.901306233E0
2.074924333E0,-1.688354284E-1,4.307305802E0,8.997987222E0,9.977232218E0
2.084894333E0,-7.931496602E-1,6.641027218E0,9.006721208E0,1.121843821E1
2.094864333E0,-1.438815585E0,8.625179862E0,8.948267763E0,1.251141135E1
2.104834333E0,-2.176452364E0,9.689533909E0,9.121648232E0,1.348437906E1
2.114804333E0,-2.987806161E0,9.522794123E0,9.281197112E0,1.362905769E1
2.124774333E0,-3.861876023E0,8.625749381E0,9.256737624E0,1.322893912E1
2.134745333E0,-4.467138857E0,7.691330990E0,9.003150898E0,1.265577449E1
2.144715333E0,-3.697600254E0,6.341612939E0,8.465416389E0,1.120498001E1
2.154685333E0,-1.665199310E0,4.272007915E0,7.463093698E0,8.759035787E0
2.164655333E0,1.565470369E0,2.102615479E0,5.795135672E0,6.360447059E0
2.174625333E0,4.702966420E0,-3.015239543E-1,3.844918806E0,6.082122201E0
2.184595333E0,7.630678992E0,-3.515341665E0,1.858019432E0,8.604482849E0
2.194565333E0,1.016106449E1,-8.001775457E0,1.265065572E-1,1.293412718E1
2.204536333E0,1.217732478E1,-1.285084333E1,-1.331691670E0,1.775400844E1
2.214506333E0,1.228011883E1,-1.582532544E1,-1.990299676E0,2.012966807E1
2.224476333E0,1.141761125E1,-1.629034398E1,-2.222776053E0,2.001694000E1
2.234446333E0,1.149379229E1,-1.660301214E1,-2.929983630E0,2.040470723E1
2.244416333E0,1.263441098E1,-1.675363408E1,-3.427166822E0,2.126165723E1
2.254386333E0,1.407323417E1,-1.563146101E1,-2.855778955E0,2.122625654E1
2.264356333E0,1.607044423E1,-1.448041672E1,-2.185941811E0,2.174212473E1
2.274326333E0,1.852808861E1,-1.376639685E1,-1.321512837E0,2.312034052E1
2.284297333E0,1.876551480E1,-1.235041523E1,3.454154938E-2,2.246505053E1
2.294267333E0,1.756211455E1,-9.951902568E0,7.027806500E-1,2.019807250E1
2.304237333E0,1.594105938E1,-7.522702553E0,3.533542585E-1,1.763046474E1
2.314207333E0,1.390250950E1,-5.315004423E0,-4.440926667E-1,1.489047551E1
2.324177333E0,1.149375019E1,-3.154431634E0,-1.128159449E0,1.197202890E1
2.334147333E0,8.897420375E0,-9.547611460E-1,-1.571554981E0,9.085452286E0
2.344117333E0,6.121931877E0,8.947897634E-1,-1.839054573E0,6.454519374E0
2.354088333E0,3.799299706E0,2.672347415E0,-1.798528690E0,4.981046518E0
2.364058333E0,2.125409095E0,4.728431044E0,-1.688561275E0,5.452216351E0
2.374028333E0,4.743179476E-1,6.508258000E0,-1.623036207E0,6.724332401E0
2.383998333E0,-1.126260273E0,8.014908888E0,-1.618933800E0,8.253979242E0
2.393968333E0,-2.497961517E0,9.182896062E0,-1.739411001E0,9.674241182E0
2.403938333E0,-3.951226156E0,9.896099081E0,-1.989726795E0,1.083992518E1
2.413908333E0,-5.378173063E0,1.015818766E1,-2.467532022E0,1.175594472E1
2.423878333E0,-6.201597267E0,1.006355398E1,-3.211384392E0,1.224940477E1
2.433849333E0,-6.499185460E0,1.006734064E1,-3.760388240E0,1.255911139E1
2.443819333E0,-6.406225841E0,1.028611772E1,-4.045789667E0,1.277545934E1
2.453789333E0,-5.570192116E0,1.090125416E1,-4.307345563E0,1.297758099E1
2.463759333E0,-4.355717824E0,1.191171618E1,-4.008078049E0,1.330135142E1
2.473729333E0,-3.338858371E0,1.242433690E1,-3.116667100E0,1.323728584E1
2.483699333E0,-2.827462059E0,1.213085579E1,-2.004110361E0,1.261620633E1
2.493669333E0,-2.926551315E0,1.139313130E1,-1.070392467E0,1.181159953E1
2.503639333E0,-3.418700931E0,1.055530950E1,-3.259425481E-1,1.109992402E1
2.513610333E0,-4.179992622E0,9.885611515E0,2.483674650E-1,1.073589026E1
2.523580333E0,-5.091247852E0,9.622081599E0,6.036770689E-1,1.090273750E1
2.533550333E0,-5.951062787E0,9.691334851E0,6.909853542E-1,1.139362016E1
2.543520333E0,-6.461663293E0,9.763973642E0,4.618388200E-1,1.171757521E1
2.553490333E0,-6.624108884E0,9.795783665E0,1.215577662E-1,1.182586032E1
2.563460333E0,-6.574362527E0,9.771357506E0,-3.176216679E-3,1.177716775E1
2.573430333E0,-6.072040510E0,9.784406152E0,2.214221796E-2,1.151541445E1
2.583401333E0,-5.298097199E0,9.719245951E0,-3.543880463E-2,1.106954523E1
2.593371333E0,-4.994699212E0,9.528007500E0,1.419505155E-1,1.075872191E1
2.603341333E0,-5.020773116E0,9.331045795E0,4.231548107E-1,1.060451028E1
2.613311333E0,-5.230633779E0,8.932522380E0,4.141641684E-1,1.035958579E1
2.623281333E0,-5.095278338E0,8.452739625E0,2.204166778E-1,9.872145259E0
2.633251333E0,-3.516217870E0,7.377163602E0,-1.511856079E-1,8.173688763E0
2.643221333E0,-4.743682337E-1,5.377762588E0,-9.254130936E-1,5.477384875E0
2.653192333E0,3.950006427E0,3.046054954E0,-2.019282131E0,5.381310424E0
2.663162333E0,9.600741600E0,-1.889089197E-1,-3.656629983E0,1.027525516E1
2.673132333E0,1.625617168E1,-5.488038152E0,-4.963855734E0,1.786117421E1
2.683102333E0,2.246744433E1,-1.148592427E1,-4.541131278E0,2.563853320E1
2.693072333E0,2.538225327E1,-1.370596704E1,-1.730535074E0,2.889821907E1
2.703042333E0,2.530340708E1,-1.256437303E1,3.370835039E-1,2.825313265E1
2.713012333E0,2.339350296E1,-1.092031141E1,7.067421386E-1,2.582651092E1
2.722982333E0,2.000660387E1,-9.111365903E0,5.752175009E-1,2.199118146E1
2.732953333E0,1.689565008E1,-7.894210078E0,1.113879379E0,1.868213777E1
2.742923333E0,1.535347268E1,-8.165655370E0,1.595568327E0,1.746290037E1
2.752893333E0,1.392305194E1,-9.232999683E0,1.132685194E0,1.674463001E1
2.762863333E0,1.183980712E1,-9.344476265E0,-1.998706949E-1,1.508443627E1
2.772833333E0,9.125085225E0,-8.133289862E0,-1.696787138E0,1.234085374E1
2.782803333E0,6.035211237E0,-6.748429459E0,-3.578177891E0,9.734907902E0
2.792773333E0,3.086112474E0,-5.390092612E0,-5.421677517E0,8.244499722E0
2.802744333E0,4.621510613E-1,-3.911207812E0,-6.172056549E0,7.321571702E0
2.812714333E0,-1.710708774E0,-2.647851674E0,-5.894931271E0,6.684897732E0
2.822684333E0,-3.582270357E0,-1.485914614E0,-4.768351740E0,6.146363272E0
2.832654333E0,-5.679616910E0,-7.018091351E-1,-3.562395086E0,6.741012020E0
2.842624333E0,-7.757289337E0,-4.735835373E-1,-2.899562906E0,8.295015628E0
2.852594333E0,-9.729738779E0,-5.768950671E-2,-2.464441184E0,1.003716171E1
2.862564333E0,-1.161827483E1,6.260549480E-1,-1.952393492E0,1.179780044E1
2.872534333E0,-1.289795201E1,1.425391839E0,-1.764587358E0,1.309590304E1
2.882505333E0,-1.318591101E1,2.139796169E0,-2.032502101E0,1.351214422E1
2.892475333E0,-1.244323977E1,2.748926059E0,-2.401725118E0,1.296761713E1
2.902444958E0,-1.135840118E1,3.359269246E0,-2.819307532E0,1.217565038E1
2.912414958E0,-1.044400775E1,4.036623864E0,-2.786551430E0,1.153847905E1
2.922384958E0,-9.868004379E0,4.794442308E0,-2.380572231E0,1.122636680E1
2.932354958E0,-9.446258163E0,5.592484041E0,-1.470939018E0,1.107570913E1
2.942324958E0,-9.096565431E0,6.380113345E0,-2.829198682E-1,1.111455769E1
2.952295958E0,-8.638151910E0,7.043144331E0,8.725285363E-1,1.117966263E1
2.962265958E0,-7.960356120E0,7.624772719E0,1.649711205E0,1.114567071E1
2.972235958E0,-7.489206778E0,8.014606002E0,1.847235997E0,1.112359692E1
2.982205958E0,-7.352029930E0,7.888938813E0,1.424308058E0,1.087733208E1
2.992175958E0,-7.360016642E0,7.422380705E0,6.630812716E-1,1.047383679E1
3.002145958E0,-7.526053593E0,7.088250922E0,1.311015916E-1,1.033934096E1
3.012115958E0,-7.713352774E0,6.900505013E0,-6.244826317E-3,1.034953233E1
3.022086958E0,-7.628849983E0,6.678568096E0,9.552011490E-3,1.013916738E1
3.032056958E0,-7.294465261E0,6.416188327E0,2.521202445E-1,9.718037904E0
3.042026958E0,-6.696798545E0,6.179052157E0,5.787749469E-1,9.130321832E0
3.051996958E0,-5.347085756E0,5.775881960E0,5.779387951E-1,7.892157611E0
3.061966958E0,-3.226180771E0,4.845376234E0,4.063288629E-1,5.835324872E0
3.071936958E0,-2.637567884E-1,3.269077114E0,-2.559373069E-1,3.289671219E0
3.081906958E0,3.725338860E0,8.191838032E-1,-1.537774301E0,4.112658693E0
3.091876958E0,8.183646668E0,-2.633249130E0,-2.763992872E0,9.030267458E0
3.101847958E0,1.238772631E1,-6.438568545E0,-3.287827381E0,1.434296820E1
3.111817958E0,1.562736094E1,-9.026958421E0,-2.769368802E0,1.825841701E1
3.121787958E0,1.673052354E1,-9.060614995E0,-1.390060916E0,1.907714421E1
3.131757958E0,1.637740317E1,-7.455670073E0,-7.287992978E-1,1.800937254E1
3.141727958E0,1.553451768E1,-5.925305802E0,-4.821451767E-1,1.663318828E1
3.151697958E0,1.431324717E1,-5.186793694E0,1.074577904E-1,1.522443498E1
3.161667958E0,1.386804485E1,-5.599618814E0,8.675734596E-1,1.498102408E1
3.171638958E0,1.467614174E1,-7.239753449E0,1.364463268E0,1.642147760E1
3.181608958E0,1.543915544E1,-8.873005911E0,1.343674954E0,1.785786149E1
3.191578958E0,1.526831032E1,-9.773937297E0,9.890389860E-1,1.815569741E1
3.201548958E0,1.401103500E1,-9.607115650E0,4.082970357E-1,1.699330690E1
3.211518958E0,1.193331813E1,-8.305546496E0,-4.324670863E-1,1.454555643E1
3.221488958E0,9.758553858E0,-6.478129052E0,-1.212177945E0,1.177560634E1
3.231458958E0,7.807807526E0,-4.517287502E0,-1.543724428E0,9.151547948E0
3.241429958E0,5.894198030E0,-2.553665602E0,-1.416932088E0,6.578029718E0
3.251399958E0,3.959611648E0,-1.028328767E0,-1.138954871E0,4.246551855E0
3.261369958E0,2.050269451E0,2.851628602E-1,-7.007605831E-1,2.185403412E0
3.271339958E0,3.013280725E-1,1.571285132E0,-1.529456198E-1,1.607211230E0
3.281309958E0,-1.254542922E0,2.786593238E0,2.915784252E-1,3.069853058E0
3.291279958E0,-2.642344474E0,4.073077160E0,6.889166093E-1,4.903727967E0
3.301249958E0,-3.765691080E0,5.287803175E0,8.852112933E-1,6.551708996E0
3.311220958E0,-4.571840855E0,6.226953133E0,9.179860333E-1,7.779419803E0
3.321190958E0,-5.309525582E0,6.684310647E0,9.041514480E-1,8.584204131E0
3.331160958E0,-6.172971053E0,6.778785864E0,7.927035908E-1,9.202493597E0
3.341130958E0,-7.105291463E0,6.825611537E0,6.193277264E-1,9.872066979E0
3.351100958E0,-8.213712466E0,6.857411619E0,6.145961595E-1,1.071759745E1
3.361070958E0,-9.318478374E0,6.996184757E0,7.488670881E-1,1.167653383E1
3.371040958E0,-1.010981364E1,6.963950227E0,7.840568013E-1,1.230120643E1
3.381010958E0,-1.050212088E1,6.617475802E0,7.273551817E-1,1.243441091E1
3.390981958E0,-1.063233370E1,5.938936247E0,5.376737718E-1,1.219042972E1
3.400951958E0,-1.058301010E1,5.165299330E0,2.486283604E-1,1.177888942E1
3.410921958E0,-1.056608591E1,4.544017464E0,-5.424213454E-2,1.150187848E1
3.420891958E0,-1.056919312E1,4.104988340E0,-3.679185033E-1,1.134434382E1
3.430861958E0,-1.053144584E1,3.752533383E0,-7.102262020E-1,1.120255683E1
3.440831958E0,-1.049453821E1,3.602665153E0,-8.211069524E-1,1.112603906E1
3.450801958E0,-1.035282510E1,3.653616621E0,-6.581847402E-1,1.099832301E1
3.460772958E0,-9.982187637E0,3.791641900E0,-2.585415106E-1,1.068117325E1
3.470742958E0,-9.570317953E0,4.022012841E0,3.045126124E-1,1.038558140E1
3.480712958E0,-8.849712358E0,3.680636896E0,4.443042628E-1,9.594889424E0
3.490682958E0,-7.515733257E0,2.663480112E0,1.584771589E-1,7.975304866E0
3.500652958E0,-5.544153296E0,1.265949086E0,-4.524025103E-1,5.704816464E0
3.510622958E0,-2.539249291E0,-7.035261700E-1,-1.348141057E0,2.959766941E0
3.520592958E0,1.309589195E0,-2.775086210E0,-2.131649244E0,3.736315810E0
3.530563958E0,6.278450730E0,-4.747486535E0,-3.254288921E0,8.517509516E0
3.540533958E0,1.225749712E1,-7.167683008E0,-4.200397650E0,1.480760804E1
3.550503958E0,1.642797223E1,-9.104115356E0,-4.088850317E0,1.922191158E1
3.560473958E0,1.735076109E1,-9.097213302E0,-3.350504855E0,1.987546435E1
3.570443958E0,1.630808326E1,-7.969668396E0,-3.786009277E0,1.854192709E1
3.580413958E0,1.464705302E1,-7.140508658E0,-3.998143045E0,1.677820532E1
3.590383958E0,1.313006542E1,-6.816694533E0,-2.525381742E0,1.500811431E1
3.600353958E0,1.180942499E1,-6.143494070E0,-1.794992879E-1,1.331304841E1
3.610324958E0,1.065821347E1,-5.719112513E0,6.813862726E-1,1.211486895E1
3.620294958E0,9.969824284E0,-5.851108729E0,3.908631237E-1,1.156657441E1
3.630264958E0,9.212365444E0,-4.768527741E0,-1.995805268E-1,1.037527668E1
3.640234958E0,8.555022045E0,-3.245688837E0,-1.576493832E0,9.284838772E0
3.650204958E0,8.049729057E0,-2.035803147E0,-2.686579245E0,8.726989194E0
3.660174958E0,7.487288307E0,-8.385301933E-1,-2.619996708E0,7.976653548E0
3.670144958E0,6.644939005E0,2.606940168E-1,-1.787534609E0,6.886105992E0
3.680115958E0,5.514840034E0,9.574420944E-1,-1.099503415E0,5.704302212E0
3.690085958E0,3.970910808E0,1.291374534E0,-7.009022319E-1,4.234034101E0
3.700055958E0,2.421437252E0,1.553019600E0,-6.995130797E-1,2.960497727E0
3.710025958E0,1.216396272E0,2.114141511E0,-1.130554469E0,2.688376392E0
3.719995958E0,6.553325415E-2,2.986550179E0,-1.872065613E0,3.525394480E0
3.729965958E0,-1.527764599E0,3.455415013E0,-2.669968475E0,4.626304059E0
3.739935958E0,-3.253873769E0,3.540232970E0,-3.335238944E0,5.851902494E0
3.749906958E0,-4.924982275E0,3.513198076E0,-3.755195328E0,7.120358353E0
3.759876958E0,-6.502485044E0,3.394871481E0,-3.854941810E0,8.286618157E0
3.769846958E0,-7.681016502E0,3.178513100E0,-3.559857979E0,9.042872821E0
3.779816958E0,-8.362386695E0,2.744357630E0,-3.069274247E0,9.321022178E0
3.789786958E0,-8.841035090E0,2.229255061E0,-2.227709641E0,9.385955989E0
3.799756958E0,-9.346597635E0,1.987007547E0,-1.198104427E0,9.630292859E0
3.809726958E0,-9.917478840E0,2.054626503E0,-1.964635223E-1,1.012997900E1
3.819697958E0,-1.035234562E1,2.121914214E0,4.118357706E-1,1.057559400E1
3.829667958E0,-1.062685837E1,2.020956481E0,6.417991608E-1,1.083634117E1
3.839637958E0,-1.074586558E1,1.809396325E0,5.960312498E-1,1.091342271E1
3.849607958E0,-1.073997158E1,1.504420467E0,4.549730194E-1,1.085436645E1
3.859577958E0,-1.066489100E1,1.213543123E0,2.693730390E-1,1.073709219E1
3.869547958E0,-1.061119718E1,9.884159651E-1,2.309065461E-2,1.065715745E1
3.879517958E0,-1.050749681E1,8.260430257E-1,-2.481517392E-1,1.054283717E1
3.889488958E0,-1.029691051E1,6.601968402E-1,-6.078151435E-1,1.033594046E1
3.899458958E0,-1.003272980E1,5.124131423E-1,-8.879195774E-1,1.008497078E1
3.909428667E0,-9.566436571E0,2.978910792E-1,-1.133722490E0,9.637986016E0
3.919398667E0,-8.681434169E0,-6.999102518E-2,-1.169049028E0,8.760072694E0
3.929368667E0,-7.395601042E0,-3.036660817E-1,-1.008455250E0,7.470214846E0
3.939338667E0,-5.382025208E0,-1.631381938E-1,-8.732945216E-1,5.454855886E0
3.949308667E0,-3.393857281E0,1.075463757E-1,-5.586523390E-1,3.441209948E0
3.959279667E0,-1.625696105E0,3.989900225E-1,-1.790744146E-1,1.683492950E0
3.969249667E0,-1.758953565E-1,4.252907985E-1,1.434205055E-1,4.820590018E-1
3.979219667E0,1.436538679E0,4.517558813E-3,2.665029332E-2,1.436792964E0
3.989189667E0,3.969957127E0,-1.089756983E0,-5.464271267E-1,4.152916141E0
3.999159667E0,7.015902738E0,-2.503948481E0,-7.970469756E-1,7.491857787E0
4.009129667E0,9.926132720E0,-3.726020061E0,-8.884798868E-1,1.063958330E1
4.019099667E0,1.159214596E1,-4.173619449E0,-1.057279501E0,1.236587188E1
4.029070667E0,1.222072866E1,-3.894602305E0,-1.682219093E0,1.293615079E1
4.039040667E0,1.232056285E1,-3.316691576E0,-2.444185259E0,1.299117984E1
4.049010667E0,1.272094042E1,-2.631044438E0,-2.810673534E0,1.329077145E1
4.058980667E0,1.359556460E1,-1.686008381E0,-2.167212009E0,1.387006881E1
4.068950667E0,1.445279097E1,-2.505678087E-1,-6.984895246E-1,1.447182914E1
4.078920667E0,1.522681848E1,1.090152840E0,6.270903437E-1,1.527866737E1
4.088890667E0,1.560497078E1,1.841784053E0,1.526093903E0,1.578721775E1
4.098861667E0,1.524769538E1,2.079810461E0,1.722513571E0,1.548498883E1
4.108831667E0,1.409111261E1,1.276978981E0,1.261025584E0,1.420493983E1
4.118801667E0,1.200474772E1,-2.999270797E-2,3.567598231E-1,1.201008513E1
4.128771667E0,9.589328420E0,-1.448622535E0,-1.013971367E0,9.750993013E0
4.138741667E0,7.272461019E0,-2.684077222E0,-2.185884654E0,8.054256733E0
4.148711667E0,4.976210316E0,-3.077684005E0,-2.508482412E0,6.366104928E0
4.158681667E0,3.264389986E0,-2.741421158E0,-2.012423347E0,4.713966448E0
4.168652667E0,2.338211492E0,-1.992624967E0,-7.413356551E-1,3.160279386E0
4.178622667E0,1.826545624E0,-1.138801382E0,5.274844868E-1,2.216162762E0
4.188592667E0,1.394528189E0,-3.385543710E-1,1.373023299E0,1.986081799E0
4.198562667E0,7.635276657E-1,4.698474589E-1,1.822060225E0,2.030673434E0
4.208532667E0,-2.092016816E-2,1.199342283E0,1.932660309E0,2.274650618E0
4.218502667E0,-9.202722216E-1,1.645684812E0,1.741514829E0,2.566720352E0
4.228472667E0,-1.849503547E0,1.867883100E0,1.334410626E0,2.947931879E0
4.238443667E0,-2.587906896E0,2.134862581E0,9.688438725E-1,3.491927662E0
4.248413667E0,-3.230485491E0,2.320458468E0,6.170999372E-1,4.025093334E0
4.258383667E0,-4.012120814E0,2.315531312E0,2.092764894E-1,4.637089102E0
4.268353667E0,-4.896866523E0,2.161909754E0,-2.116844094E-1,5.357048238E0
4.278323667E0,-5.861174126E0,1.995391870E0,-6.410969102E-1,6.224624976E0
4.288293667E0,-6.848993967E0,1.778064020E0,-1.001853744E0,7.146603455E0
4.298263667E0,-7.839684792E0,1.565353132E0,-1.209795350E0,8.085455636E0
4.308234667E0,-8.686831734E0,1.402645293E0,-1.048722101E0,8.861618218E0
4.318204667E0,-9.325671034E0,1.409202946E0,-4.585000598E-1,9.442680525E0
4.328174667E0,-9.813848637E0,1.586505142E0,3.297122115E-1,9.946724777E0
4.338144667E0,-1.011005338E1,1.471702957E0,6.704090023E-1,1.023858082E1
4.348114667E0,-1.045044202E1,1.094031006E0,6.332429302E-1,1.052661574E1
4.358084667E0,-1.091471913E1,8.406430846E-1,4.641888160E-1,1.095688121E1
4.368054667E0,-1.125024406E1,7.423988982E-1,2.880426504E-1,1.127839156E1
4.378025667E0,-1.131835009E1,6.968917729E-1,1.924756847E-1,1.134141763E1
4.387995667E0,-1.112331036E1,6.648855762E-1,1.712550062E-1,1.114448000E1
4.397965667E0,-1.068103633E1,7.022735502E-1,1.145896393E-1,1.070471186E1
4.407935667E0,-1.004198477E1,8.434864394E-1,-9.443015736E-2,1.007778967E1
4.417905667E0,-9.267146838E0,1.022360660E0,-4.323196999E-1,9.333388032E0
4.427875667E0,-8.499813219E0,1.009468134E0,-7.110804802E-1,8.589032898E0
4.437845667E0,-7.789857743E0,8.152106202E-1,-1.062154325E0,7.904089057E0
4.447816667E0,-6.808754598E0,3.904305759E-1,-1.368651921E0,6.955917143E0
4.457786667E0,-5.592009248E0,-2.156640244E-1,-1.482234085E0,5.789136056E0
4.467756667E0,-4.001305220E0,-1.205736213E0,-1.664026358E0,4.498135947E0
4.477726667E0,-1.730350741E0,-2.523260957E0,-1.859228636E0,3.580180256E0
4.487696667E0,6.642115384E-1,-3.817997640E0,-1.916074097E0,4.323149650E0
4.497666667E0,2.810743116E0,-5.123018113E0,-1.961895218E0,6.163977961E0
4.507636667E0,4.850143177E0,-6.160084959E0,-2.222939483E0,8.149355526E0
4.517607667E0,6.463793433E0,-6.790466847E0,-2.193806462E0,9.628283977E0
4.527577667E0,7.483437331E0,-6.853852419E0,-1.743249114E0,1.029640931E1
4.537547667E0,8.372833915E0,-6.085898411E0,-1.205726273E0,1.042095404E1
4.547517667E0,9.556338429E0,-4.990600898E0,-8.681149118E-1,1.081588300E1
4.557487667E0,1.125837286E1,-4.114692671E0,-4.952227668E-1,1.199695381E1
4.567457667E0,1.288263230E1,-2.797304167E0,-1.285636076E-1,1.318346139E1
4.577427667E0,1.375094617E1,-9.593403929E-1,3.113165787E-1,1.378788499E1
4.587398667E0,1.334222579E1,6.637156945E-1,1.132832544E0,1.340667062E1
4.597368667E0,1.189658826E1,1.927772914E0,2.121449068E0,1.223706120E1
4.607338667E0,9.670172608E0,3.046080389E0,3.181672058E0,1.062609435E1
4.617308667E0,7.376070172E0,3.749735198E0,3.600473032E0,9.023875625E0
4.627278667E0,5.924671964E0,3.549881460E0,3.048272803E0,7.549527359E0
4.637248667E0,5.888382390E0,2.299561104E0,1.764747133E0,6.563182222E0
4.647218667E0,6.768253275E0,6.696930107E-1,3.828359199E-1,6.812070497E0
4.657189667E0,7.621419926E0,-5.201770753E-1,-9.275484967E-1,7.695256467E0
4.667159667E0,8.131160890E0,-1.452902989E0,-1.824278659E0,8.459000954E0
4.677129667E0,8.028401923E0,-2.184207819E0,-1.963028701E0,8.548653865E0
4.687099667E0,7.363962927E0,-2.500452138E0,-1.597297933E0,7.939242507E0
4.697069667E0,6.494151592E0,-2.446903045E0,-1.227741040E0,7.047601541E0
4.707039667E0,5.318170105E0,-1.963631256E0,-7.314855087E-1,5.716104620E0
4.717009667E0,3.961782719E0,-1.453711074E0,-1.922190285E-1,4.224446278E0
4.726980667E0,2.672615510E0,-1.106676779E0,1.873587497E-1,2.898742910E0
4.736950667E0,1.518759887E0,-9.536042744E-1,2.904756403E-1,1.816691719E0
4.746920667E0,4.105850512E-1,-9.592047375E-1,1.515773714E-1,1.054338424E0
4.756890667E0,-6.419932884E-1,-8.997368002E-1,-7.950451814E-2,1.108152815E0
4.766860667E0,-1.521190574E0,-5.491044205E-1,-2.022142589E-1,1.629854912E0
4.776830667E0,-2.293908309E0,2.991874069E-2,-2.333331406E-1,2.305939031E0
4.786801667E0,-3.049863245E0,6.050809854E-1,-7.543843746E-2,3.110221821E0
4.796771667E0,-3.675522337E0,9.890620825E-1,1.415026188E-1,3.808901580E0
4.806741667E0,-4.242402878E0,1.261608405E0,3.670659427E-1,4.441213275E0
4.816711667E0,-4.794903946E0,1.465238860E0,6.453406732E-1,5.055145235E0
4.826681667E0,-5.357134196E0,1.620987050E0,8.379890335E-1,5.659391437E0
4.836651667E0,-5.956140509E0,1.692393833E0,9.316357005E-1,6.261609356E0
4.846621667E0,-6.586965031E0,1.656749498E0,7.987974858E-1,6.838933005E0
4.856592667E0,-7.189444005E0,1.555884151E0,5.451230514E-1,7.376044993E0
4.866562667E0,-7.736477342E0,1.492440984E0,2.995727384E-1,7.884808532E0
4.876532667E0,-8.186600096E0,1.400026618E0,1.208572880E-1,8.306329042E0
4.886502667E0,-8.543300716E0,1.297433126E0,2.375489831E-2,8.641289495E0
4.896472667E0,-8.796775761E0,1.177726735E0,-3.786775628E-2,8.875344388E0
4.906442542E0,-8.974260390E0,1.068225927E0,6.621387005E-3,9.037615838E0
4.916412542E0,-9.180884035E0,9.659427765E-1,1.907034484E-1,9.233528302E0
4.926383542E0,-9.284661003E0,9.209083986E-1,3.556463671E-1,9.336995585E0
4.936353542E0,-9.295853158E0,8.556426546E-1,5.957798195E-1,9.354141537E0
4.946323542E0,-9.225507061E0,8.666348353E-1,8.971570086E-1,9.309453645E0
4.956293542E0,-9.022191187E0,9.495297883E-1,1.110210836E0,9.139699597E0
4.966263542E0,-8.631351598E0,9.586587538E-1,1.184055322E0,8.764772902E0
4.976233542E0,-7.977304859E0,9.342681170E-1,1.053701005E0,8.100650316E0
4.986203542E0,-7.230548762E0,8.522805056E-1,7.206564653E-1,7.316185017E0
4.996174542E0,-6.186278147E0,5.300591621E-1,1.366868520E-1,6.210449526E0
5.006144542E0,-4.841619691E0,3.060081840E-2,-4.400953273E-1,4.861676824E0
5.016114542E0,-3.333150904E0,-7.330835527E-1,-7.087689297E-1,3.485636217E0
5.026084542E0,-1.872455623E0,-1.927997739E0,-5.316884156E-1,2.739700333E0
5.036054542E0,-9.264065355E-1,-2.968723773E0,2.330431187E-1,3.118630950E0
5.046024542E0,-4.430435300E-3,-3.524144063E0,8.099656677E-1,3.616027570E0
5.055994542E0,9.804617053E-1,-3.813893772E0,9.655577374E-1,4.054552084E0
5.065965542E0,2.545953709E0,-4.276079039E0,3.855184762E-1,4.991528497E0
5.075935542E0,4.827737816E0,-4.322621999E0,3.405418396E-2,6.480221682E0
5.085905542E0,6.909264143E0,-3.328071720E0,1.022854896E-1,7.669710209E0
5.095875542E0,8.786403385E0,-1.463761269E0,4.574558933E-1,8.919234686E0
5.105845542E0,9.998839338E0,2.591345644E-1,9.589131077E-1,1.004805718E1
5.115815542E0,1.022737191E1,1.509287982E0,1.207195386E0,1.040838158E1
5.125785542E0,9.709605646E0,1.922171574E0,1.392635006E0,9.995529882E0
5.135756542E0,8.522056028E0,1.621496927E0,1.654006569E0,8.831218996E0
5.145726542E0,7.619057066E0,1.217977652E0,2.152460508E0,8.010404882E0
5.155696542E0,7.447402110E0,2.392297652E-1,2.799581366E0,7.959816888E0
5.165666542E0,7.821152042E0,-1.516334169E0,3.021536994E0,8.520526649E0
5.175636542E0,8.038862007E0,-3.441922856E0,2.682195003E0,9.146819411E0
5.185606542E0,7.928874126E0,-4.933846654E0,2.029153254E0,9.556534447E0
5.195576542E0,7.651022040E0,-5.991057742E0,1.383282824E0,9.815517434E0
5.205547542E0,7.120180228E0,-6.647209479E0,7.220726609E-1,9.767484285E0
5.215517542E0,6.386645855E0,-7.054050558E0,9.808338806E-2,9.516222722E0
5.225487542E0,5.537131959E0,-7.238042554E0,-3.971056111E-1,9.121775222E0
5.235457542E0,4.793469624E0,-6.707186708E0,-6.941136146E-1,8.273179455E0
5.245427542E0,4.266433180E0,-5.461858998E0,-3.494622787E-1,6.939486989E0
5.255397542E0,3.885314003E0,-3.995132022E0,5.793503860E-1,5.602891364E0
5.265367542E0,3.457926977E0,-2.362567192E0,1.650667955E0,4.501520567E0
5.275338542E0,2.836549217E0,-7.062992120E-1,2.543288548E0,3.874685365E0
5.285308542E0,2.141111793E0,7.342565042E-1,3.128631088E0,3.861583199E0
5.295278542E0,1.222389084E0,1.679044054E0,3.407608763E0,3.990641739E0
5.305248542E0,1.570784318E-1,2.125072003E0,3.385618554E0,4.000377188E0
5.315218542E0,-1.006116364E0,2.311218991E0,3.278427397E0,4.135467272E0
5.325188542E0,-2.107249398E0,2.356268864E0,3.109782003E0,4.434326002E0
5.335158542E0,-2.973998546E0,2.217564722E0,2.786732694E0,4.639842644E0
5.345129542E0,-3.612195822E0,1.951924838E0,2.352102138E0,4.731844640E0
5.355099542E0,-4.194657438E0,1.673911953E0,1.832369159E0,4.873880280E0
5.365069542E0,-4.711089372E0,1.535208104E0,1.454683174E0,5.164042034E0
5.375039542E0,-5.129733641E0,1.527805822E0,1.203426052E0,5.486036102E0
5.385009542E0,-5.359122834E0,1.512886066E0,1.032814824E0,5.663543790E0
5.394979542E0,-5.608068625E0,1.571096852E0,1.148058766E0,5.936060811E0
5.404950542E0,-5.878705832E0,1.709219780E0,1.138780332E0,6.227153055E0
5.414920542E0,-6.135069986E0,1.768907573E0,8.655656719E-1,6.443393645E0
5.424890542E0,-6.384047937E0,1.731173444E0,7.307861817E-1,6.654853717E0
5.434860542E0,-6.495914528E0,1.579537016E0,8.652826667E-1,6.740961121E0
5.444830542E0,-6.486202887E0,1.396435258E0,1.324280909E0,6.765691336E0
5.454800542E0,-6.599223134E0,1.230841526E0,1.813592287E0,6.953692100E0
5.464770542E0,-6.806722106E0,1.075864876E0,2.218238322E0,7.239442818E0
5.474741542E0,-6.867533149E0,9.081719935E-1,2.360661292E0,7.318504605E0
5.484711542E0,-6.773790588E0,7.741380233E-1,2.400283195E0,7.228062536E0
5.494681542E0,-6.491763005E0,7.132863423E-1,2.372717081E0,6.948492690E0
5.504651542E0,-5.912876376E0,7.245223519E-1,2.296352445E0,6.384377356E0
5.514621542E0,-5.166820191E0,8.202506277E-1,2.329200933E0,5.726606234E0
5.524591542E0,-4.358140326E0,1.035820512E0,2.349210105E0,5.058171542E0
5.534561542E0,-3.625316389E0,1.116850934E0,2.169718126E0,4.370120328E0
5.544532542E0,-2.991755370E0,8.119879273E-1,1.761540227E0,3.565522201E0
5.554502542E0,-2.329401492E0,1.961840254E-1,1.280336745E0,2.665307049E0
5.564472542E0,-1.297966100E0,-7.119429445E-1,5.655100266E-1,1.584733524E0
5.574442542E0,2.437587261E-2,-1.661709107E0,-1.535794580E-1,1.668969139E0
5.584412542E0,1.493605165E0,-2.890865465E0,-5.964591929E-1,3.308129849E0
5.594382542E0,2.482510834E0,-3.950525952E0,-4.744265597E-1,4.689839646E0
5.604352542E0,2.939060848E0,-4.090558581E0,-2.008049338E-1,5.040939475E0
5.614323542E0,4.048670005E0,-3.755198836E0,-3.381175840E-1,5.532410922E0
5.624293542E0,5.726171272E0,-3.034665163E0,-1.883025634E-1,6.483339258E0
5.634263542E0,7.248235420E0,-1.802133499E0,8.574722484E-2,7.469401210E0
5.644233542E0,8.973785596E0,-4.200961322E-1,1.048641117E-1,8.984225352E0
5.654203542E0,1.067856062E1,8.553768986E-1,2.979404882E-2,1.071280608E1
5.664173542E0,1.163696253E1,1.616964458E0,-2.292295647E-1,1.175100069E1
5.674143542E0,1.153308090E1,1.340922085E0,-8.014021280E-1,1.163839647E1
5.684114542E0,1.029896522E1,6.459729034E-1,-1.122169561E0,1.038003999E1
5.694084542E0,8.453746516E0,2.093373370E-1,-7.785020927E-1,8.492097372E0
5.704054542E0,6.742370574E0,-8.409640968E-2,5.639668733E-2,6.743130857E0
5.714024542E0,5.519148847E0,-3.927691698E-1,1.205196808E0,5.662841245E0
5.723994542E0,4.551518272E0,-9.231005198E-1,2.145868941E0,5.115973677E0
5.733964542E0,3.699953758E0,-1.192646636E0,2.547034274E0,4.647520565E0
5.743935542E0,2.966658536E0,-1.103175466E0,2.575396779E0,4.080530302E0
5.753905542E0,2.529083907E0,-8.637419254E-1,2.313433039E0,3.534726007E0
5.763875542E0,2.612281015E0,-7.379279709E-1,1.720272772E0,3.213703191E0
5.773845542E0,2.996598619E0,-8.724431670E-1,1.096054727E0,3.307883965E0
5.783815542E0,3.473260716E0,-1.178644017E0,4.913976645E-1,3.700569332E0
5.793785542E0,3.752661145E0,-1.578917211E0,-1.718556614E-1,4.074920808E0
5.803755542E0,4.056561992E0,-2.205068053E0,-9.655201690E-1,4.717017014E0
5.813726542E0,4.231099625E0,-2.897899666E0,-1.427175825E0,5.323237487E0
5.823696542E0,4.012072282E0,-3.316208596E0,-1.265871903E0,5.356901635E0
5.833666542E0,3.565257298E0,-3.460108866E0,-6.155504251E-1,5.006227651E0
5.843636542E0,2.921646670E0,-3.402368196E0,3.358476949E-1,4.497212723E0
5.853606542E0,1.981519643E0,-3.146937550E0,1.172504440E0,3.899282332E0
5.863576542E0,9.003688842E-1,-2.808118008E0,1.705162690E0,3.406430782E0
5.873546542E0,-7.308200955E-2,-2.482083695E0,1.912863830E0,3.134506098E0
5.883517542E0,-1.014609445E0,-2.180036123E0,1.900012965E0,3.064643387E0
5.893487542E0,-1.898042454E0,-1.881417942E0,1.660392752E0,3.146299846E0
5.903458208E0,-2.651481333E0,-1.606297090E0,1.231368653E0,3.335687690E0
5.913428208E0,-3.293745348E0,-1.256822459E0,8.836639738E-1,3.634449495E0
5.923398208E0,-3.862967699E0,-8.451653212E-1,6.809328210E-1,4.012542008E0
5.933368208E0,-4.391661828E0,-5.368197128E-1,6.231273202E-1,4.468014847E0
5.943338208E0,-4.864782266E0,-3.368271035E-1,6.477463639E-1,4.919261565E0
5.953309208E0,-5.343762783E0,-2.343663436E-1,6.937604427E-1,5.393702978E0
5.963279208E0,-5.816024850E0,-1.684729010E-1,7.442020333E-1,5.865864373E0
5.973249208E0,-6.315522662E0,-1.702323282E-1,7.514455640E-1,6.362348307E0
5.983219208E0,-6.832050490E0,-1.954304655E-1,7.493510914E-1,6.875800610E0
5.993189208E0,-7.321875839E0,-2.199058869E-1,6.839359510E-1,7.357036957E0
6.003159208E0,-7.724351386E0,-3.187738252E-1,5.234556091E-1,7.748627418E0
6.013130208E0,-8.014503676E0,-4.651179385E-1,3.403150407E-1,8.035198703E0
6.023100208E0,-8.182352094E0,-5.786332981E-1,2.014506125E-1,8.205259571E0
6.033070208E0,-8.212512032E0,-5.784904799E-1,1.979318313E-1,8.235240259E0
6.043040208E0,-8.047431101E0,-3.447376554E-1,2.171387652E-1,8.057737935E0
6.053010208E0,-7.757158359E0,-6.688132972E-2,3.128542137E-1,7.763752745E0
6.062980208E0,-7.379943953E0,1.350874923E-1,3.920195568E-1,7.391583099E0
6.072950208E0,-7.031717117E0,3.337988305E-1,5.277989209E-1,7.059393669E0
6.082921208E0,-6.792404029E0,4.139844762E-1,7.397744485E-1,6.845100575E0
6.092891208E0,-6.500085347E0,3.409498291E-1,8.991088092E-1,6.570825896E0
6.102861208E0,-6.155861515E0,1.243758318E-1,1.017825998E0,6.240678658E0
6.112831208E0,-5.763612748E0,-2.050410953E-1,1.085445685E0,5.868514811E0
6.122801208E0,-5.038694247E0,-4.425023702E-1,9.543674091E-1,5.147335739E0
6.132771208E0,-3.993519652E0,-4.134957951E-1,6.183195202E-1,4.062203468E0
6.142741208E0,-2.836386665E0,-3.567076367E-1,8.595640898E-2,2.860020656E0
6.152712208E0,-1.417451028E0,-5.316691929E-1,-4.087741685E-1,1.568099445E0
6.162682208E0,-1.914787710E-1,-1.157490252E0,-1.028279650E0,1.560066294E0
6.172652208E0,9.913492209E-1,-1.930714063E0,-1.384965652E0,2.574598984E0
6.182622208E0,1.885939887E0,-2.328758591E0,-1.416411832E0,3.314529877E0
6.192592208E0,2.736851851E0,-2.217686929E0,-1.162275467E0,3.709363508E0
6.202562208E0,3.986697121E0,-1.766911918E0,-8.127815406E-1,4.435802689E0
6.212532208E0,5.691776780E0,-1.159541456E0,-6.219249134E-1,5.841887529E0
6.222503208E0,7.753474029E0,-4.248168817E-1,-4.517826323E-1,7.778234790E0
6.232473208E0,9.770766937E0,6.739310727E-1,-3.030765362E-1,9.798669553E0
6.242443208E0,1.146632908E1,1.828686582E0,-2.691473365E-2,1.161126701E1
6.252413208E0,1.218743461E1,2.334575694E0,2.618909419E-1,1.241178444E1
6.262383208E0,1.197544498E1,2.031345814E0,1.919640899E-2,1.214652283E1
6.272353208E0,1.122147108E1,1.201278004E0,-3.804604885E-1,1.129199859E1
6.282323208E0,9.908991022E0,6.080595571E-1,-5.525769357E-1,9.942996569E0
6.292294208E0,8.521941422E0,1.469302967E-1,-7.831058979E-1,8.559107954E0
6.302264208E0,7.671988986E0,-5.739480704E-1,-1.127281197E0,7.775576781E0
6.312234208E0,7.274270148E0,-1.477414517E0,-1.351939263E0,7.544898913E0
6.322204208E0,7.139139240E0,-2.402171553E0,-1.391681764E0,7.659929203E0
6.332174208E0,6.879912874E0,-3.114541344E0,-1.117118737E0,7.634233636E0
6.342144208E0,5.918609571E0,-3.207368524E0,-4.341581011E-1,6.745787230E0
6.352115208E0,4.581705692E0,-2.675087420E0,1.457443352E-1,5.307481622E0
6.362085208E0,3.174566229E0,-1.695000814E0,4.755753183E-1,3.630023469E0
6.372055208E0,1.737861489E0,-6.086077335E-1,8.112906468E-1,2.012152689E0
6.382025208E0,5.933204806E-1,1.718958610E-1,9.793758774E-1,1.157909534E0
6.391995208E0,-2.586112386E-1,5.366855192E-1,1.026346634E0,1.186717545E0
6.401965208E0,-8.342906696E-1,6.688027722E-1,1.117565464E0,1.546703150E0
6.411935208E0,-1.218130556E0,5.387016392E-1,1.146655362E0,1.757515299E0
6.421906208E0,-1.750376285E0,4.351810715E-1,1.205095943E0,2.169206292E0
6.431876208E0,-2.520123634E0,5.275971919E-1,1.147019058E0,2.818693784E0
6.441846208E0,-3.324705185E0,6.840765765E-1,9.726819849E-1,3.530968079E0
6.451816208E0,-4.103388249E0,7.953210238E-1,7.182251930E-1,4.241011446E0
6.461786208E0,-4.842074604E0,7.771645421E-1,4.558886933E-1,4.925190930E0
6.471756208E0,-5.513994527E0,6.632242361E-1,1.918605942E-1,5.557050703E0
6.481726208E0,-6.108339440E0,5.529665065E-1,1.819185734E-2,6.133344407E0
6.491697208E0,-6.686679354E0,5.573481175E-1,-1.186222812E-2,6.709877675E0
6.501667208E0,-7.200030974E0,8.285299927E-1,2.751992047E-2,7.247597210E0
6.511637208E0,-7.586612036E0,1.151552697E0,1.040178734E-1,7.674214977E0
6.521607208E0,-7.746564374E0,1.336720568E0,2.376103789E-1,7.864638591E0
6.531577208E0,-7.546753905E0,1.171524155E0,4.265052652E-1,7.649043737E0
6.541547208E0,-7.211175182E0,7.201971665E-1,7.166920531E-1,7.282402006E0
6.551517208E0,-6.887882629E0,3.919660547E-1,1.159537947E0,6.995791074E0
6.561488208E0,-6.465365165E0,2.592453691E-1,1.583832965E0,6.661582525E0
6.571458208E0,-6.076586720E0,1.244074067E-1,1.903853416E0,6.369069100E0
6.581428208E0,-5.833062467E0,-3.257688493E-2,1.995776324E0,6.165127909E0
6.591398208E0,-5.552800158E0,-1.081556556E-1,1.790173019E0,5.835238357E0
6.601368208E0,-5.046096822E0,-9.056372255E-2,1.434085772E0,5.246703434E0
6.611338208E0,-4.485523088E0,-1.251856712E-1,8.956612909E-1,4.575783864E0
6.621308208E0,-3.449888810E0,-5.692966104E-1,5.262494087E-3,3.496549603E0
6.631279208E0,-1.882136858E0,-1.492060915E0,-7.321229283E-1,2.510913959E0
6.641249208E0,-6.868057644E-1,-2.518879931E0,-1.258302097E0,2.898237815E0
6.651219208E0,6.571100950E-1,-3.444038963E0,-1.729543240E0,3.909541901E0
6.661189208E0,1.577375885E0,-3.963165878E0,-1.476997318E0,4.514013684E0
6.671159208E0,1.883357756E0,-3.778491220E0,-1.370084488E0,4.438599311E0
6.681129208E0,2.096825566E0,-2.859941003E0,-1.479630904E0,3.842557431E0
6.691100208E0,2.963258965E0,-1.625420994E0,-1.444647013E0,3.675581871E0
6.701070208E0,4.097412395E0,-5.147713244E-1,-1.158235261E0,4.288972694E0
6.711040208E0,5.674616371E0,1.261916846E-1,-9.045047660E-1,5.747636399E0
6.721010208E0,8.003843032E0,4.274381885E-1,-1.912506565E-1,8.017529763E0
6.730980208E0,9.987376456E0,1.418750864E0,1.786166361E0,1.024455625E1
6.740950208E0,1.168605575E1,2.424324607E0,3.768614688E0,1.251573831E1
6.750920208E0,1.227709933E1,2.246230112E0,5.313516891E0,1.356488774E1
6.760891208E0,1.128882048E1,1.848910055E0,5.976062558E0,1.290617139E1
6.770861208E0,9.777264363E0,1.501333430E0,5.446446322E0,1.129215117E1
6.780831208E0,8.338688514E0,8.652774042E-1,4.226876181E0,9.388765274E0
6.790801208E0,7.489000372E0,2.544123530E-2,3.044715649E0,8.084309940E0
6.800771208E0,7.595610901E0,-1.285110996E0,2.018593475E0,7.963638292E0
6.810741208E0,7.876452668E0,-2.862014718E0,1.661815964E0,8.543492681E0
6.820711208E0,7.907037115E0,-4.255519352E0,1.580412490E0,9.117476873E0
6.830682208E0,7.678089970E0,-5.267418612E0,1.439737691E0,9.421868660E0
6.840652208E0,6.881177627E0,-5.311863883E0,1.507394654E0,8.822626711E0
6.850622208E0,5.807382665E0,-4.677133421E0,1.485020868E0,7.603062372E0
6.860592208E0,4.481381505E0,-3.864942888E0,1.349268401E0,6.069686066E0
6.870562208E0,3.032961869E0,-2.923291492E0,1.045071684E0,4.340122771E0
6.880532208E0,1.812076689E0,-2.254867035E0,5.352798120E-1,2.941865352E0
6.890502208E0,1.017903181E0,-2.112750166E0,8.806256692E-2,2.346826616E0
6.900473208E0,3.309126449E-1,-2.102776862E0,-1.626870811E-1,2.134863180E0
6.910443542E0,-4.886383635E-1,-2.020546007E0,-4.797014791E-1,2.133421460E0
6.920413542E0,-1.672205443E0,-1.864751624E0,-8.042435825E-1,2.630661020E0
6.930383542E0,-3.280588528E0,-1.535056369E0,-9.669417733E-1,3.748817885E0
6.940353542E0,-4.985602114E0,-9.569284165E-1,-7.696257269E-1,5.134614317E0
6.950323542E0,-6.414070466E0,-3.827797866E-1,-4.379915357E-1,6.440392604E0
6.960293542E0,-7.399541481E0,3.269675285E-2,1.402495422E-1,7.400942719E0
6.970264542E0,-7.881582431E0,3.507021077E-1,7.808365935E-1,7.927927810E0
6.980234542E0,-7.834676067E0,5.434792529E-1,1.304537201E0,7.961113997E0
6.990204542E0,-7.560696591E0,6.139073575E-1,1.639754566E0,7.760786701E0
7.000174542E0,-7.287488948E0,6.079909985E-1,1.832056040E0,7.538804783E0
7.010144542E0,-7.176237484E0,5.592269741E-1,1.955236993E0,7.458825037E0
7.020114542E0,-7.288563082E0,3.877006571E-1,1.912307906E0,7.545222669E0
7.030084542E0,-7.465153672E0,2.528808211E-1,1.650670148E0,7.649652279E0
7.040055542E0,-7.573479189E0,-3.821827859E-2,1.129406660E0,7.657323754E0
7.050025542E0,-7.724878805E0,-5.767377770E-1,5.205360943E-1,7.763848069E0
7.059995542E0,-7.899888309E0,-1.241393996E0,-2.991376142E-2,7.996886218E0
7.069965542E0,-8.092354674E0,-1.977175600E0,-4.006757748E-1,8.340022099E0
7.079935542E0,-8.461956591E0,-2.451024163E0,-5.104601723E-1,8.824556554E0
7.089905542E0,-8.821110118E0,-2.556243347E0,-4.567768854E-1,9.195379758E0
7.099876542E0,-9.031981180E0,-2.513037101E0,-3.600744635E-1,9.381987696E0
7.109846542E0,-8.970516418E0,-2.500323207E0,-2.578622103E-1,9.316022428E0
7.119816542E0,-8.413332900E0,-2.683927825E0,1.039868832E-2,8.831067160E0
7.129786542E0,-7.716969277E0,-2.904835925E0,3.721881402E-1,8.253981499E0
7.139756542E0,-6.876993944E0,-3.062834124E0,5.105952430E-1,7.545509001E0
7.149726542E0,-5.863645159E0,-3.232309238E0,4.817649615E-1,6.712842545E0
7.159696542E0,-4.740735340E0,-3.537267262E0,3.221137547E-1,5.923730963E0
7.169667542E0,-3.549808370E0,-3.828615307E0,2.875333214E-1,5.228968353E0
7.179637542E0,-2.429174287E0,-4.018533748E0,2.182683377E-1,4.700759755E0
7.189607542E0,-1.248216235E0,-4.318227232E0,-4.233025990E-2,4.495211012E0
7.199577542E0,1.345806849E-1,-4.778225056E0,-3.815038510E-1,4.795319784E0
7.209547542E0,1.521386456E0,-5.056000836E0,-7.106132877E-1,5.327544692E0
7.219517542E0,3.151332902E0,-5.398345372E0,-1.175555883E0,6.360421641E0
7.229487542E0,4.782528899E0,-5.555685174E0,-1.696450338E0,7.524371348E0
7.239458542E0,6.552168251E0,-5.368238643E0,-2.381657474E0,8.798931028E0
7.249428542E0,8.839549897E0,-4.706469487E0,-2.629748987E0,1.035394018E1
7.259398542E0,1.069938840E1,-3.021433498E0,-2.022888548E0,1.130035621E1
7.269368542E0,1.196897445E1,-4.700869024E-1,-1.031751581E0,1.202255557E1
7.279338542E0,1.356057135E1,2.072948754E0,1.850912726E-1,1.371934658E1
7.289308542E0,1.426222904E1,3.993101576E0,1.783313212E0,1.491764872E1
7.299278542E0,1.360864716E1,4.522324294E0,2.738096139E0,1.459944742E1
7.309249542E0,1.265948384E1,4.032226465E0,2.760418469E0,1.356986704E1
7.319219542E0,1.165736931E1,3.737344363E0,2.554878899E0,1.250557509E1
7.329189542E0,1.058802584E1,3.209077665E0,2.232858700E0,1.128672355E1
7.339159542E0,9.534932358E0,1.923957898E0,1.581601667E0,9.854847178E0
7.349129542E0,8.448728435E0,4.079900569E-1,9.518053785E-1,8.511956387E0
7.359099542E0,7.317981008E0,-8.705761510E-1,7.822662377E-1,7.410984370E0
7.369069542E0,6.375792253E0,-1.906622073E0,8.989741771E-1,6.715213262E0
7.379040542E0,5.314921392E0,-2.589088911E0,1.090243910E0,6.011688829E0
7.389010542E0,4.023029380E0,-2.669105426E0,1.065310067E0,4.944064594E0
7.398980542E0,2.672114403E0,-2.472777852E0,8.402565837E-1,3.736422997E0
7.408950542E0,1.117293568E0,-2.189966449E0,6.653991079E-1,2.546969560E0
7.418920542E0,-5.154051626E-1,-1.728309185E0,4.501081725E-1,1.858841706E0
7.428890542E0,-1.973773252E0,-1.276488692E0,1.200994889E-1,2.353641459E0
7.438860542E0,-3.195766479E0,-8.659147507E-1,-1.320745683E-1,3.313634777E0
7.448831542E0,-4.289726148E0,-2.872117245E-1,-2.282524949E-1,4.305385024E0
7.458801542E0,-5.052719963E0,2.222140753E-1,-4.271309173E-1,5.075608234E0
7.468771542E0,-5.581435143E0,5.149829936E-1,-6.717562008E-1,5.645253062E0
7.478741542E0,-6.116496305E0,6.491336158E-1,-8.828939686E-1,6.213887935E0
7.488711542E0,-6.578693560E0,6.959312215E-1,-1.196011855E0,6.722646322E0
7.498681542E0,-6.690250833E0,5.061946285E-1,-1.633311519E0,6.905316483E0
7.508652542E0,-6.508114743E0,1.026110333E-1,-2.137649657E0,6.850958516E0
7.518622542E0,-6.354185622E0,-3.597174910E-1,-2.612155300E0,6.879565895E0
7.528592542E0,-5.986474110E0,-9.028475189E-1,-3.074377112E0,6.790051586E0
7.538562542E0,-5.198016840E0,-1.916954980E0,-3.234908325E0,6.415506787E0
7.548532542E0,-4.420159403E0,-2.976004726E0,-2.407535350E0,5.847276267E0
7.558502542E0,-3.146062807E0,-3.479743231E0,-9.679463980E-1,4.789910685E0
7.568472542E0,-1.560935268E0,-3.859852302E0,9.601052088E-1,4.272795422E0
7.578442542E0,-3.363488013E-1,-4.106715315E0,2.730442134E0,4.943030997E0
7.588413542E0,5.996845901E-1,-4.010582704E0,3.952354084E0,5.662640554E0
7.598383542E0,1.296463366E0,-3.702130677E0,4.749793847E0,6.160124219E0
7.608353542E0,1.624826040E0,-3.346378182E0,5.059662362E0,6.280007151E0
7.618323542E0,1.642771729E0,-2.950450054E0,4.772985073E0,5.846814602E0
7.628293542E0,1.376825159E0,-2.457600819E0,3.830258374E0,4.754611289E0
7.638263542E0,6.363969183E-1,-1.759402924E0,2.735930915E0,3.314486032E0
7.648234542E0,-3.989309657E-1,-1.045799078E0,1.861269314E0,2.171903563E0
7.658204542E0,-1.329908270E0,-4.858050951E-1,1.278466805E0,1.907653000E0
7.668174542E0,-2.163286189E0,-8.838505000E-2,1.122321662E0,2.438693290E0
7.678144542E0,-2.908921375E0,2.533250633E-1,1.262033937E0,3.180994626E0
7.688114542E0,-3.608048977E0,5.437387231E-1,1.501495982E0,3.945650694E0
7.698084542E0,-4.288194178E0,8.311659175E-1,1.767619139E0,4.712103937E0
7.708054542E0,-4.884814242E0,1.138899907E0,2.004412662E0,5.401497320E0
7.718025542E0,-5.434924968E0,1.462828638E0,2.258239124E0,6.064480273E0
7.727995542E0,-5.886424157E0,1.849292170E0,2.404826481E0,6.622164396E0
7.737965542E0,-6.207353266E0,2.239990841E0,2.433783063E0,7.033640134E0
7.747935542E0,-6.460368719E0,2.606427660E0,2.337937843E0,7.348182257E0
7.757905542E0,-6.691312103E0,2.965934066E0,2.208324952E0,7.645071722E0
7.767875542E0,-6.812569322E0,3.238476296E0,2.025043977E0,7.810226155E0
7.777845542E0,-6.811417421E0,3.384697033E0,1.837830166E0,7.824909009E0
7.787816542E0,-6.635315657E0,3.449175157E0,1.794535042E0,7.690551291E0
7.797786542E0,-6.400804887E0,3.375646128E0,1.781094632E0,7.452354532E0
7.807756542E0,-6.120909199E0,3.193362396E0,1.813578254E0,7.138078096E0
7.817726542E0,-5.791157811E0,2.955065262E0,1.837190480E0,6.756122287E0
7.827696542E0,-5.355395234E0,3.088540531E0,1.671833560E0,6.404246105E0
7.837666542E0,-4.809566424E0,3.432993865E0,1.239350102E0,6.037662191E0
7.847636542E0,-4.300270432E0,3.267960589E0,5.677377427E-1,5.430857975E0
7.857607542E0,-3.543026184E0,2.634246665E0,-1.651861811E-1,4.418096481E0
7.867577542E0,-2.151222798E0,1.078334740E0,-7.719622743E-1,2.527150785E0
7.877547542E0,-6.648453766E-1,-1.267839198E0,-9.491773474E-1,1.717665056E0
7.887517542E0,1.683832632E0,-3.673564104E0,-1.337117887E0,4.256553747E0
7.897487542E0,5.612963914E0,-5.725399439E0,-2.572145727E0,8.420302624E0
7.907457292E0,8.905987716E0,-7.545899627E0,-4.183485163E0,1.239995026E1
7.917427292E0,1.118939793E1,-9.682198577E0,-5.811590906E0,1.589723826E1
7.927398292E0,1.289327190E1,-1.157120124E1,-6.976360942E0,1.867615512E1
7.937368292E0,1.352886424E1,-1.232780521E1,-7.299494451E0,1.970501378E1
7.947338292E0,1.396042384E1,-1.284844948E1,-6.297961135E0,1.999100803E1
7.957308292E0,1.449752568E1,-1.291728290E1,-3.883779109E0,1.980197436E1
7.967278292E0,1.563607914E1,-1.138509722E1,-7.557760119E-1,1.935661662E1
7.977248292E0,1.730323843E1,-8.704393262E0,3.271419801E0,1.964359208E1
7.987218292E0,1.892115716E1,-6.029642349E0,7.430270938E0,2.120320026E1
7.997189292E0,1.909107607E1,-4.642710863E0,1.023440495E1,2.215326149E1
8.007159292E0,1.764861592E1,-3.928479903E0,1.075035390E1,2.103513031E1
8.017129292E0,1.463406986E1,-2.923306110E0,8.867513037E0,1.735898922E1
8.027099292E0,1.053029511E1,-1.498643711E0,5.605834404E0,1.202324529E1
8.037069292E0,5.781906931E0,5.892438018E-1,2.836412977E0,6.467062285E0
8.047039292E0,1.681056374E0,2.855835673E0,7.435471451E-1,3.396264165E0
8.057009292E0,-1.051311833E0,4.695611207E0,-2.338533235E-1,4.817541755E0
8.066980292E0,-2.657959464E0,5.966716368E0,-5.312196151E-1,6.553521726E0
8.076950292E0,-3.668906212E0,6.893666110E0,-4.989967060E-1,7.825119996E0
8.086920292E0,-4.443564638E0,7.642966331E0,-3.596283209E-1,8.848137293E0
8.096890292E0,-5.349659700E0,8.264512491E0,-1.473287479E-1,9.845949999E0
8.106860292E0,-6.517824630E0,8.669604083E0,1.156859922E-1,1.084700217E1
8.116830292E0,-7.644779552E0,8.918506604E0,1.993865454E-1,1.174828368E1
8.126800292E0,-8.633277671E0,8.969811244E0,1.086441904E-1,1.245001207E1
8.136771292E0,-9.377522973E0,8.610858861E0,-3.102637875E-1,1.273503400E1
8.146741292E0,-9.699051422E0,8.159133385E0,-1.118302213E0,1.272374379E1
8.156711292E0,-9.902605863E0,7.774366715E0,-2.136688374E0,1.276980101E1
8.166681292E0,-1.029738764E1,7.275816736E0,-3.201785018E0,1.300865592E1
8.176651292E0,-1.066124701E1,6.811420929E0,-4.090064784E0,1.329609991E1
8.186621292E0,-1.077640909E1,6.549539927E0,-4.558545456E0,1.340924319E1
8.196591292E0,-1.042610591E1,6.356199988E0,-4.395719796E0,1.297795497E1
8.206562292E0,-9.710317837E0,6.113359274E0,-3.399876990E0,1.196756440E1
8.216532292E0,-8.743116447E0,5.955287985E0,-2.036989839E0,1.077296931E1
8.226502292E0,-7.538016411E0,5.878530416E0,-1.099145565E0,9.622210361E0
8.236472292E0,-6.468854198E0,6.044679049E0,8.773045421E-2,8.853920944E0
8.246442292E0,-5.600657864E0,6.109603608E0,1.015713984E0,8.350227521E0
8.256412292E0,-4.733834456E0,5.975916962E0,1.448071142E0,7.760005298E0
8.266382292E0,-3.477930302E0,5.826182633E0,1.495402014E0,6.948138632E0
8.276353292E0,-2.113296588E0,5.471665363E0,1.201268283E0,5.987335785E0
8.286323292E0,-4.334055644E-1,4.436864898E0,2.533867514E-1,4.465178088E0
8.296293292E0,2.170727355E0,1.861469874E0,-1.256615907E0,3.123493378E0
8.306263292E0,5.639799711E0,-2.046640084E0,-2.458764707E0,6.483949436E0
8.316233292E0,9.796800495E0,-6.773470160E0,-3.273860722E0,1.235213998E1
8.326203292E0,1.381765003E1,-1.192100857E1,-3.832714205E0,1.864745548E1
8.336173292E0,1.676322819E1,-1.635925341E1,-3.623803715E0,2.370153887E1
8.346144292E0,1.688386677E1,-1.776286467E1,-2.589050027E0,2.464320390E1
8.356114292E0,1.589153229E1,-1.613648619E1,-2.023764607E0,2.273813116E1
8.366084292E0,1.512012668E1,-1.291394765E1,-9.224109869E-1,1.990575587E1
8.376054292E0,1.385852324E1,-9.458458963E0,2.966117084E-1,1.678121244E1
8.386024292E0,1.326828307E1,-7.024678239E0,1.031171683E0,1.504848016E1
8.395994292E0,1.365546815E1,-6.107848274E0,9.221025462E-1,1.498759134E1
8.405964292E0,1.411573290E1,-6.133657883E0,6.432346523E-1,1.540420154E1
8.415935292E0,1.401602384E1,-6.398011672E0,1.917828262E-1,1.540844763E1
8.425905292E0,1.257989622E1,-5.954166489E0,-3.556146459E-1,1.392236867E1
8.435875292E0,9.686578726E0,-4.562858947E0,-8.235871951E-1,1.073907748E1
8.445845292E0,6.158781615E0,-2.882101366E0,-1.082868963E0,6.885470533E0
8.455815292E0,2.781334544E0,-1.457093396E0,-1.032365685E0,3.305256710E0
8.465785292E0,-9.731637955E-2,-4.469237423E-1,-6.860549819E-1,8.245500272E-1
8.475755292E0,-2.439361891E0,3.280784994E-1,-1.640926056E-1,2.466789071E0
8.485726292E0,-4.230167579E0,1.220889857E0,2.113265598E-1,4.407896177E0
8.495696292E0,-5.745611510E0,2.376772125E0,3.704328791E-1,6.228829575E0
8.505666292E0,-6.880443217E0,3.560997602E0,1.366448251E-1,7.748540158E0
8.515636292E0,-7.597735779E0,4.672616447E0,-5.326006544E-1,8.935468476E0
8.525606292E0,-8.116418890E0,5.795753723E0,-1.224768316E0,1.004823737E1
8.535576292E0,-8.398908988E0,6.600741071E0,-1.769733492E0,1.082789968E1
8.545546292E0,-8.667445875E0,6.984918342E0,-2.352167627E0,1.137745116E1
8.555517292E0,-9.067684863E0,7.049340625E0,-2.614090143E0,1.177920113E1
8.565487292E0,-9.489685434E0,6.892501929E0,-2.779310823E0,1.205343441E1
8.575457292E0,-1.014523257E1,6.726901181E0,-2.521211801E0,1.243114847E1
8.585427292E0,-1.077081565E1,6.615455005E0,-2.128632665E0,1.281818207E1
8.595397292E0,-1.133900479E1,6.375684080E0,-1.947680052E0,1.315354837E1
8.605367292E0,-1.183557607E1,6.244259137E0,-1.970404086E0,1.352605358E1
8.615337292E0,-1.167741825E1,6.343118012E0,-1.839091995E0,1.341564394E1
8.625308292E0,-1.088682440E1,6.632150559E0,-1.436851505E0,1.282859731E1
8.635278292E0,-9.743511896E0,7.034200430E0,-1.029380096E0,1.206132759E1
8.645248292E0,-8.413546908E0,7.535879838E0,-7.048724914E-1,1.131698289E1
8.655218292E0,-7.126577666E0,8.329888455E0,-4.408917181E-1,1.097130514E1
8.665188292E0,-6.204088181E0,9.351968887E0,-7.708731573E-2,1.122301094E1
8.675158292E0,-5.881580324E0,9.782360796E0,4.125350976E-1,1.142181050E1
8.685128292E0,-5.613855030E0,9.333396960E0,8.616818782E-1,1.092566532E1
8.695099292E0,-5.494961255E0,8.325848029E0,1.540441801E0,1.009392419E1
8.705069292E0,-5.460246336E0,7.278684795E0,2.311711034E0,9.388160113E0
8.715039292E0,-4.230665177E0,6.168258782E0,2.102172406E0,7.769496320E0
8.725009292E0,-1.068027853E0,4.447251892E0,4.932934780E-1,4.600225140E0
8.734979292E0,3.605081515E0,2.045955375E0,-1.453185263E0,4.392527010E0
8.744949292E0,9.281943217E0,-1.347063416E0,-3.837885482E0,1.013402263E1
8.754919292E0,1.540829734E1,-5.749403429E0,-5.303498272E0,1.727999886E1
8.764890292E0,2.009354261E1,-1.030777581E1,-4.226955703E0,2.297537489E1
8.774860292E0,2.179766917E1,-1.284932890E1,-1.096609043E0,2.532678791E1
8.784830292E0,2.033383744E1,-1.156931025E1,1.174779592E0,2.342421806E1
8.794800292E0,1.709122658E1,-8.139492003E0,2.718965803E0,1.912469950E1
8.804770292E0,1.390756618E1,-5.191294296E0,4.391749829E0,1.548087207E1
8.814740292E0,1.219078741E1,-4.324420018E0,5.844679130E0,1.419423053E1
8.824710292E0,1.249723530E1,-5.967892243E0,5.950069345E0,1.507315339E1
8.834681292E0,1.328304261E1,-8.045685707E0,4.853987721E0,1.627063233E1
8.844651292E0,1.292234191E1,-8.980968901E0,3.476490133E0,1.611616290E1
8.854621292E0,1.135949811E1,-8.844234102E0,2.156629865E0,1.455711945E1
8.864591292E0,9.077536252E0,-7.641615624E0,8.450641644E-1,1.189580124E1
8.874561292E0,6.706420138E0,-5.667640643E0,-1.250625873E-1,8.781449891E0
8.884531292E0,4.280227346E0,-3.582903610E0,-3.666998705E-1,5.593926458E0
8.894501292E0,1.710531603E0,-1.619117988E0,2.050396335E-1,2.364212908E0
8.904472292E0,-5.164617544E-1,3.384602308E-2,9.407971179E-1,1.073767905E0
8.914442167E0,-2.382215298E0,1.235644721E0,1.530762466E0,3.089498557E0
8.924412167E0,-3.865057493E0,2.083527828E0,1.803344457E0,4.746768255E0
8.934382167E0,-4.692988147E0,2.790743884E0,1.576252050E0,5.683041412E0
8.944352167E0,-4.809795635E0,3.547219808E0,7.880058646E-1,6.028088889E0
8.954322167E0,-4.784109401E0,4.336685722E0,-3.244216142E-1,6.465276111E0
8.964292167E0,-4.843666801E0,4.990267607E0,-1.348843308E0,7.084014197E0
8.974263167E0,-5.237324163E0,5.436669778E0,-2.122759722E0,7.841750538E0
8.984233167E0,-5.894525474E0,5.803581390E0,-2.461637444E0,8.630564664E0
8.994203167E0,-6.568183190E0,5.970046358E0,-2.404521841E0,9.195880013E0
9.004173167E0,-7.226698955E0,5.730154395E0,-2.164214142E0,9.473313572E0
9.014143167E0,-7.875061031E0,5.070191444E0,-1.917066370E0,9.560259985E0
9.024113167E0,-8.507408168E0,4.350653551E0,-1.722603765E0,9.709353417E0
9.034083167E0,-8.922111413E0,3.855181546E0,-1.564234267E0,9.844456596E0
9.044054167E0,-8.999710397E0,3.624343997E0,-1.380322963E0,9.799793269E0
9.054024167E0,-8.811389707E0,3.587276451E0,-1.116004257E0,9.578862479E0
9.063994167E0,-8.433397036E0,3.647555397E0,-7.815511964E-1,9.221587076E0
9.073964167E0,-7.746960815E0,3.643343063E0,-6.557020855E-1,8.585994163E0
9.083934167E0,-6.739480296E0,3.677514776E0,-6.017562952E-1,7.701092145E0
9.093904167E0,-5.929868969E0,3.695326272E0,-3.524935849E-1,6.995929815E0
9.103874167E0,-5.252660825E0,3.368492060E0,-1.201602999E-1,6.241123536E0
9.113844167E0,-4.853065031E0,2.887681949E0,6.354810616E-2,5.647564571E0
9.123815167E0,-4.781823140E0,2.248683019E0,1.596178593E-1,5.286575992E0
9.133785167E0,-5.024030015E0,8.628595805E-1,2.041262984E-3,5.097588490E0
9.143755167E0,-5.242898898E0,-4.080113992E-1,-1.050475681E-1,5.259800105E0
9.153725167E0,-4.845246719E0,-9.512098396E-1,-7.172171330E-1,4.989550715E0
9.163695167E0,-4.199455664E0,-1.848830825E0,-1.739526776E0,4.907092489E0
9.173665167E0,-2.913086346E0,-2.767613468E0,-2.651286621E0,4.814049970E0
9.183635167E0,-8.802550471E-1,-3.690522199E0,-3.305901124E0,5.032274366E0
9.193606167E0,1.060869107E0,-4.258217842E0,-3.053768016E0,5.346340949E0
9.203576167E0,2.768054933E0,-4.034969394E0,-2.373743852E0,5.438544474E0
9.213546167E0,4.395509296E0,-4.226081545E0,-2.443875357E0,6.569078623E0
9.223516167E0,6.322316542E0,-5.443413956E0,-3.413375287E0,9.014076370E0
9.233486167E0,7.297501720E0,-6.582469107E0,-3.923517956E0,1.058189133E1
9.243456167E0,6.574234473E0,-6.326676226E0,-3.667901076E0,9.833661032E0
9.253426167E0,5.299226296E0,-5.001588986E0,-2.967896976E0,7.868043225E0
9.263397167E0,5.125237716E0,-3.808988543E0,-1.979013380E0,6.685278553E0
9.273367167E0,5.280161449E0,-2.830495010E0,-6.669287395E-1,6.027984811E0
9.283337167E0,6.379885304E0,-2.083254763E0,-3.636724015E-1,6.721245756E0
9.293307167E0,9.112911907E0,-2.106278175E0,-1.151348337E0,9.423755842E0
9.303277167E0,1.235666590E1,-2.716360869E0,-1.922211335E0,1.279690216E1
9.313247167E0,1.569613472E1,-4.216473400E0,-2.862343040E0,1.650273616E1
9.323217167E0,1.814502114E1,-6.121927199E0,-3.151389913E0,1.940749966E1
9.333188167E0,1.827415924E1,-6.810274875E0,-2.055925462E0,1.960998647E1
9.343158167E0,1.582460506E1,-5.611907907E0,-5.243955490E-1,1.679841143E1
9.353128167E0,1.195337876E1,-3.645952967E0,3.044379142E-1,1.250075675E1
9.363098167E0,7.944421872E0,-1.921320219E0,6.915852785E-1,8.202658134E0
9.373068167E0,4.550182768E0,-9.691069973E-1,8.785263178E-1,4.734463020E0
9.383038167E0,2.320299717E0,-5.234415758E-1,1.128837726E0,2.632879881E0
9.393008167E0,8.036524290E-1,-4.082058191E-1,1.384590553E0,1.652144127E0
9.402979167E0,-4.282822341E-1,-3.159157062E-1,1.490816628E0,1.582960083E0
9.412949167E0,-1.306518238E0,-1.596348345E-2,1.212022701E0,1.782201943E0
9.422919167E0,-1.843320701E0,4.413203555E-1,5.444576383E-1,1.972062114E0
9.432889167E0,-2.303484294E0,1.168031613E0,-1.207742393E-1,2.585522028E0
9.442859167E0,-2.930144429E0,2.080005466E0,-5.024114799E-1,3.628303516E0
9.452829167E0,-3.680146900E0,2.912967648E0,-7.149858356E-1,4.747637988E0
9.462799167E0,-4.481241757E0,3.542723299E0,-7.649853035E-1,5.763472787E0
9.472770167E0,-5.215541530E0,3.930546893E0,-6.602851331E-1,6.564072577E0
9.482740167E0,-5.837202880E0,4.084939407E0,-4.388826148E-1,7.138086955E0
9.492710167E0,-6.372358768E0,4.140009653E0,-2.243927113E-1,7.602433050E0
9.502680167E0,-6.756076448E0,4.219630896E0,1.256000195E-3,7.965541755E0
9.512650167E0,-7.073280880E0,4.345169739E0,1.998087327E-1,8.303717602E0
9.522620167E0,-7.326424388E0,4.441755217E0,3.569912267E-1,8.575145856E0
9.532590167E0,-7.486947999E0,4.480085762E0,4.307667160E-1,8.735623546E0
9.542560167E0,-7.550462210E0,4.486466536E0,4.818602711E-1,8.796024720E0
9.552531167E0,-7.607184879E0,4.464351197E0,5.513468277E-1,8.837628456E0
9.562501167E0,-7.669923164E0,4.389203074E0,5.588990915E-1,8.854670698E0
9.572471167E0,-7.646050737E0,4.383817204E0,4.934956455E-1,8.827427887E0
9.582441167E0,-7.504479121E0,4.571434766E0,1.976054835E-1,8.789440859E0
9.592411167E0,-7.538221648E0,4.671178325E0,-1.896824698E-1,8.870212624E0
9.602381167E0,-7.703233582E0,4.413704077E0,-5.742293215E-1,8.896647156E0
9.612351167E0,-7.825198315E0,3.965217666E0,-9.147267222E-1,8.820056960E0
9.622322167E0,-7.872808099E0,3.464654199E0,-1.061046277E0,8.666646138E0
9.632292167E0,-7.746788907E0,2.889643105E0,-1.119606727E0,8.343637987E0
9.642262167E0,-7.102506434E0,2.032017075E0,-1.477780260E0,7.533825425E0
9.652232167E0,-5.890604331E0,5.962908661E-1,-2.001431167E0,6.249840710E0
9.662202167E0,-4.074616440E0,-1.453035136E0,-2.756580942E0,5.129575882E0
9.672172167E0,-1.481140071E0,-3.934779985E0,-3.664203297E0,5.576975456E0
9.682142167E0,5.604298925E-1,-5.992838219E0,-3.755190650E0,7.094339180E0
9.692113167E0,1.572037377E0,-6.798388070E0,-3.340092133E0,7.735993622E0
9.702083167E0,1.797603076E0,-6.426176541E0,-3.274788090E0,7.433125775E0
9.712053167E0,1.788258641E0,-5.486457065E0,-3.252233040E0,6.623903671E0
9.722023167E0,2.224290774E0,-4.933112243E0,-2.781937977E0,6.084590764E0
9.731993167E0,3.173323696E0,-4.825568791E0,-1.896264900E0,6.078808930E0
9.741963167E0,4.519325842E0,-4.431143105E0,-9.793690069E-1,6.404568599E0
9.751933167E0,5.815002172E0,-3.414609927E0,-3.263635111E-1,6.751320193E0
9.761904167E0,6.461738722E0,-2.448086229E0,1.728355086E-1,6.912095602E0
9.771874167E0,6.587446257E0,-1.589648021E0,6.238521557E-1,6.805190705E0
9.781844167E0,6.232814382E0,-3.798836607E-1,1.231860988E0,6.364728447E0
9.791814167E0,5.609067914E0,9.293658113E-1,1.726776484E0,5.941979528E0
9.801784167E0,4.979608718E0,1.914087213E0,1.777862438E0,5.623257747E0
9.811754167E0,4.333414789E0,2.377426429E0,1.267783065E0,5.102735939E0
9.821724167E0,4.064772652E0,1.780497047E0,2.851362553E-1,4.446779636E0
9.831695167E0,4.102222899E0,8.015836841E-1,-1.637031810E-1,4.183009425E0
9.841665167E0,3.519237957E0,7.405662346E-1,6.315811515E-2,3.596868512E0
9.851635167E0,2.329022593E0,1.612924617E0,2.641466515E-1,2.845284786E0
9.861605167E0,1.056069127E0,2.899175236E0,3.001176989E-1,3.100091883E0
9.871575167E0,3.317259926E-1,4.067926056E0,-1.718414819E-1,4.085045168E0
9.881545167E0,5.262698740E-1,4.755691933E0,-1.269623476E0,4.950303982E0
9.891515167E0,1.642863531E0,4.827828448E0,-2.516818203E0,5.686941354E0
9.901485167E0,3.624416503E0,4.300852230E0,-3.340419577E0,6.541569219E0
9.911456208E0,5.874838484E0,3.381797399E0,-3.662715765E0,7.704918406E0
9.921426208E0,7.941746187E0,2.229555023E0,-3.467257379E0,8.947855711E0
9.931396208E0,9.729109034E0,9.019008547E-1,-2.812499034E0,1.016755322E1
9.941366208E0,1.088235128E1,-2.262457305E-1,-1.855985624E0,1.104180417E1
9.951336208E0,1.110771701E1,-9.057284421E-1,-7.553922884E-1,1.117015392E1
9.961306208E0,1.078164352E1,-1.425873358E0,-1.783248746E-1,1.087698265E1
9.971276208E0,1.013160622E1,-1.975133314E0,-1.227330565E-2,1.032234212E1
9.981247208E0,9.150957400E0,-2.513994582E0,1.316920142E-1,9.490918443E0
9.991217208E0,8.170158311E0,-3.014397544E0,2.206749420E-1,8.711301671E0
1.000118721E1,7.418070138E0,-3.391687379E0,5.432846868E-1,8.174745629E0
1.001115721E1,6.698818758E0,-3.534162390E0,1.153104841E0,7.661209260E0
1.002112721E1,5.638009878E0,-3.385250180E0,1.682263678E0,6.788010404E0
1.003109721E1,4.263777959E0,-3.019043157E0,1.965326364E0,5.581839462E0
1.004106721E1,2.677256445E0,-2.561762533E0,2.023665496E0,4.222031666E0
1.005103821E1,1.104165984E0,-2.171375519E0,1.849646365E0,3.058634637E0
1.006100821E1,-2.650794286E-1,-1.895315312E0,1.699802109E0,2.559651235E0
1.007097821E1,-1.425221393E0,-1.615829221E0,1.594049220E0,2.680140483E0
1.008094821E1,-2.466967181E0,-1.829747559E0,1.229171269E0,3.308287353E0
1.009091821E1,-3.211141732E0,-2.327077224E0,6.280646360E-1,4.015119527E0
1.010088821E1,-3.923447204E0,-2.564657782E0,-1.166643776E-2,4.687327982E0
1.011085821E1,-4.726212611E0,-2.504059286E0,-5.944946746E-1,5.381526035E0
1.012082921E1,-5.407087544E0,-2.272777056E0,-1.156923072E0,5.978342768E0
1.013079921E1,-5.922971009E0,-1.962038475E0,-1.608273157E0,6.443424796E0
1.014076921E1,-6.336737530E0,-1.665782277E0,-1.889814836E0,6.819125548E0
1.015073921E1,-6.611181859E0,-1.447391111E0,-1.980315117E0,7.051546963E0
1.016070921E1,-6.834934922E0,-1.234490481E0,-1.856275792E0,7.189301910E0
1.017067921E1,-7.151413130E0,-1.268052622E0,-1.839028260E0,7.492175395E0
1.018064921E1,-7.427257867E0,-1.745577621E0,-2.188440911E0,7.937283810E0
1.019061921E1,-7.728746154E0,-2.356562686E0,-2.729126510E0,8.528483822E0
1.020059021E1,-8.199630616E0,-2.884101114E0,-3.168734801E0,9.251641028E0
1.021056021E1,-8.654661523E0,-3.366765377E0,-3.602335078E0,9.960677346E0
1.022053021E1,-8.909888393E0,-3.694416153E0,-3.936553738E0,1.041783457E1
1.023050021E1,-8.681755766E0,-3.988882518E0,-4.136487583E0,1.041127257E1
1.024047021E1,-8.144702457E0,-4.211413220E0,-3.945811050E0,9.982064128E0
1.025044021E1,-7.505562610E0,-4.020103725E0,-3.257309008E0,9.116181549E0
1.026041021E1,-6.798165291E0,-3.831774557E0,-2.697631068E0,8.256800891E0
1.027038121E1,-6.145716012E0,-4.025008955E0,-2.349219460E0,7.712934231E0
1.028035121E1,-5.664731069E0,-4.399999081E0,-2.025554439E0,7.453324143E0
1.029032121E1,-5.215741505E0,-4.777434220E0,-1.694022574E0,7.273070167E0
1.030029121E1,-4.700149232E0,-5.149917644E0,-1.347205503E0,7.101268704E0
1.031026121E1,-4.004619421E0,-5.601898059E0,-1.126325762E0,6.977596169E0
1.032023121E1,-3.225397244E0,-6.149452967E0,-8.561411297E-1,6.996566073E0
1.033020121E1,-2.409259256E0,-6.633756790E0,-5.609304507E-1,7.079964850E0
1.034017221E1,-1.463679700E0,-7.035716028E0,-4.420448256E-1,7.199934855E0
1.035014221E1,-3.520591003E-1,-7.301435727E0,-2.262381291E-1,7.313418693E0
1.036011221E1,6.321834147E-1,-7.275210965E0,2.921268940E-2,7.302684700E0
1.037008221E1,1.713868024E0,-6.952293802E0,3.063473225E-2,7.160493782E0
1.038005221E1,2.748303623E0,-6.604221334E0,-6.361880265E-2,7.153527772E0
1.039002221E1,3.202818806E0,-6.356399378E0,-1.343431418E-1,7.118982331E0
1.039999221E1,3.309425826E0,-6.023838987E0,-3.138902307E-1,6.880222563E0
1.040996221E1,3.296989968E0,-5.712742556E0,-3.394658057E-1,6.604605014E0
1.041993321E1,3.272590122E0,-5.261153905E0,-7.234043643E-2,6.196355353E0
1.042990321E1,3.292530296E0,-4.461178498E0,5.175171769E-1,5.568724573E0
1.043987321E1,3.536181434E0,-3.404858525E0,1.057891266E0,5.021630675E0
1.044984321E1,4.266407452E0,-2.275201312E0,1.232712635E0,4.989825047E0
1.045981321E1,5.578706832E0,-1.197992453E0,1.126126957E0,5.815953727E0
1.046978321E1,7.331693314E0,-4.071606293E-1,6.005476391E-1,7.367507319E0
1.047975321E1,9.188552658E0,-8.172945678E-3,-1.812145686E-1,9.190343055E0
1.048972421E1,1.061142990E1,1.857005525E-1,-9.957495430E-1,1.065966446E1
1.049969421E1,1.126966734E1,3.956921929E-1,-1.703178437E0,1.140450749E1
1.050966421E1,1.084608217E1,6.270004427E-1,-2.197420918E0,1.108419085E1
1.051963421E1,9.467122782E0,8.302256852E-1,-2.529870358E0,9.834425885E0
1.052960421E1,7.573368092E0,8.734231603E-1,-2.563993539E0,8.043185634E0
1.053957421E1,5.725090706E0,8.200263870E-1,-2.139645896E0,6.166619125E0
1.054954421E1,4.017573928E0,7.246764261E-1,-1.429441913E0,4.325431813E0
1.055951521E1,2.574400413E0,7.296237552E-1,-4.195704675E-1,2.708491774E0
1.056948521E1,1.477305467E0,7.804132551E-1,5.793549907E-1,1.768368880E0
1.057945521E1,6.179214710E-1,9.381021363E-1,1.432039247E0,1.820054660E0
1.058942521E1,-1.945193231E-1,1.181833965E0,2.092166505E0,2.410752989E0
1.059939521E1,-1.125079721E0,1.480729011E0,2.448010654E0,3.074267221E0
1.060936521E1,-2.019161094E0,1.878923813E0,2.538316076E0,3.748388283E0
1.061933521E1,-2.766980215E0,2.363269735E0,2.438633913E0,4.380429055E0
1.062930621E1,-3.369805344E0,2.796527365E0,2.272251245E0,4.933485490E0
1.063927621E1,-3.816892809E0,3.122889706E0,2.092091660E0,5.357047540E0
1.064924621E1,-4.060269712E0,3.359050561E0,1.941001947E0,5.615736760E0
1.065921621E1,-4.144697074E0,3.524329128E0,1.802378351E0,5.731315499E0
1.066918621E1,-4.125853252E0,3.637890242E0,1.656960437E0,5.744774004E0
1.067915621E1,-4.080476519E0,3.795286177E0,1.516428456E0,5.775295755E0
1.068912621E1,-4.098799939E0,3.913675922E0,1.335976364E0,5.822529777E0
1.069909621E1,-4.064785516E0,3.953202515E0,1.177379995E0,5.791072014E0
1.070906721E1,-3.954714020E0,4.024431542E0,1.113079480E0,5.751065827E0
1.071903721E1,-3.768500082E0,4.180407189E0,1.193872797E0,5.753497145E0
1.072900721E1,-3.326007360E0,4.292430485E0,1.217253474E0,5.564978927E0
1.073897721E1,-2.840321841E0,4.324643966E0,1.232774177E0,5.318806799E0
1.074894721E1,-2.485111676E0,4.131149075E0,1.243238354E0,4.978736218E0
1.075891721E1,-2.224383160E0,3.739280961E0,1.183523080E0,4.508972104E0
1.076888721E1,-2.080139367E0,3.281734582E0,1.074682130E0,4.031340141E0
1.077885821E1,-1.964088508E0,2.893440871E0,9.016067398E-1,3.611445480E0
1.078882821E1,-1.648381548E0,2.643636709E0,7.141097765E-1,3.196236779E0
1.079879821E1,-1.036217245E0,2.715965597E0,7.717984061E-1,3.007638290E0
1.080876821E1,-1.142937702E-1,3.199689960E0,8.280676241E-1,3.307079512E0
1.081873821E1,1.060627032E0,3.747941857E0,8.377832115E-1,3.984203631E0
1.082870821E1,2.272872366E0,3.991110014E0,7.689930582E-1,4.656850681E0
1.083867821E1,3.345349365E0,3.856681942E0,6.096308501E-1,5.141693082E0
1.084864821E1,4.188424891E0,3.540480891E0,5.219623764E-1,5.509115422E0
1.085861921E1,4.900013494E0,3.064233363E0,4.323900492E-1,5.795396406E0
1.086858921E1,5.478511283E0,2.445913112E0,2.750705659E-1,6.006017037E0
1.087855921E1,6.019295116E0,1.718187363E0,5.863573238E-2,6.259993583E0
1.088852921E1,6.512884317E0,8.880540633E-1,-4.973290801E-2,6.573338232E0
1.089849921E1,6.650659921E0,2.271269059E-1,9.803894922E-2,6.655259247E0
1.090846871E1,6.257746909E0,1.706398791E-1,5.673367698E-1,6.285728705E0
1.091843871E1,5.652770004E0,5.980842072E-1,9.482770224E-1,5.762876257E0
1.092840971E1,5.279412421E0,1.043292376E0,1.031178554E0,5.479414540E0
1.093837971E1,5.279957966E0,1.091579268E0,9.301578167E-1,5.471260822E0
1.094834971E1,5.581419940E0,5.459878546E-1,5.097333634E-1,5.631179218E0
1.095831971E1,6.312374521E0,-7.297003537E-1,-1.764723305E-1,6.356860639E0
1.096828971E1,7.020408602E0,-2.259033176E0,-5.783573096E-1,7.397558044E0
1.097825971E1,7.261888669E0,-3.298175198E0,-7.619272828E-1,8.012085862E0
1.098822971E1,7.028159087E0,-3.630260795E0,-8.595069332E-1,7.956919363E0
1.099819971E1,6.261498483E0,-3.342916923E0,-8.081894298E-1,7.143852389E0
1.100817071E1,5.235697467E0,-2.627905945E0,-6.247785008E-1,5.891414584E0
1.101814071E1,4.504627696E0,-1.867474964E0,-3.370580685E-1,4.888020209E0
1.102811071E1,3.999485566E0,-1.286540056E0,9.696086884E-2,4.202436379E0
1.103808071E1,3.574790599E0,-7.604356581E-1,6.759545016E-1,3.716759974E0
1.104805071E1,3.265176437E0,-3.561638457E-1,1.311870779E0,3.536839661E0
1.105802071E1,3.002709544E0,-2.519530141E-1,1.745157645E0,3.482143038E0
1.106799071E1,2.591149178E0,-3.057585078E-1,2.086363728E0,3.340726857E0
1.107796171E1,1.997784258E0,-4.043618596E-1,2.264785520E0,3.046949935E0
1.108793171E1,1.285746004E0,-4.958456415E-1,2.266800471E0,2.652807958E0
1.109790171E1,4.589204746E-1,-5.254378152E-1,2.103651606E0,2.216312924E0
1.110787171E1,-4.245452785E-1,-5.697860223E-1,1.746733908E0,1.885729076E0
1.111784171E1,-1.114133733E0,-5.579495037E-1,1.367358370E0,1.849937982E0
1.112781171E1,-1.728320003E0,-5.259786826E-1,1.029954293E0,2.079555109E0
1.113778171E1,-2.216846684E0,-5.006850895E-1,7.945335500E-1,2.407566893E0
1.114775271E1,-2.658379294E0,-4.914967749E-1,5.866638641E-1,2.766355732E0
1.115772271E1,-3.148252589E0,-5.565008560E-1,3.788245106E-1,3.219424728E0
1.116769271E1,-3.793391680E0,-5.187219957E-1,2.883437455E-1,3.839535787E0
1.117766271E1,-4.582317896E0,-4.184141806E-1,2.465969646E-1,4.607984135E0
1.118763271E1,-5.458626657E0,-2.831312451E-1,2.065493115E-1,5.469865712E0
1.119760271E1,-6.385212702E0,-2.889194039E-1,9.632823665E-2,6.392471729E0
1.120757271E1,-7.346580909E0,-4.487679541E-1,-1.846305120E-1,7.362590044E0
1.121754271E1,-8.276887538E0,-7.408852002E-1,-6.217005265E-1,8.333204050E0
1.122751371E1,-9.185831364E0,-1.020521272E0,-1.120276233E0,9.309993574E0
1.123748371E1,-9.977997522E0,-1.045773935E0,-1.555496773E0,1.015251929E1
1.124745371E1,-1.051583377E1,-8.646327487E-1,-1.879552973E0,1.071741896E1
1.125742371E1,-1.070525432E1,-5.152664374E-1,-2.100560183E0,1.092155313E1
1.126739371E1,-1.053935361E1,-7.835137412E-2,-2.087616202E0,1.074440575E1
1.127736371E1,-1.001774923E1,4.380976626E-1,-1.827640808E0,1.019252178E1
1.128733371E1,-9.374092997E0,9.494001263E-1,-1.485399182E0,9.538416579E0
1.129730371E1,-8.744147311E0,1.398593612E0,-1.037228814E0,8.915829737E0
1.130727471E1,-8.058673543E0,1.753161021E0,-7.967556381E-1,8.285566509E0
1.131724471E1,-7.145115679E0,1.657200026E0,-6.683355796E-1,7.365165473E0
1.132721471E1,-5.805650720E0,9.288126647E-1,-4.313491352E-1,5.895280767E0
1.133718471E1,-3.959436232E0,-3.335576329E-1,-1.773718150E-1,3.977418350E0
1.134715471E1,-1.908732333E0,-1.819565364E0,2.603590810E-1,2.649880013E0
1.135712471E1,-2.433014739E-1,-3.227535863E0,8.456793646E-1,3.345348553E0
1.136709471E1,7.184772080E-1,-4.281209386E0,1.180122558E0,4.498627853E0
1.137706571E1,9.285150415E-1,-4.961960067E0,8.696600385E-1,5.122450241E0
1.138703571E1,3.367920202E-1,-5.003570023E0,3.356196535E-1,5.026110065E0
1.139700571E1,-4.076240212E-1,-4.506454366E0,-4.379440270E-2,4.525064225E0
1.140697571E1,-6.599541807E-1,-3.949506783E0,-1.422148097E-1,4.006790286E0
1.141694571E1,-2.616365880E-1,-3.785343864E0,-1.277762800E-2,3.794396545E0
1.142691571E1,1.128886843E0,-4.159921761E0,-7.101794243E-2,4.310960231E0
1.143688571E1,3.184393644E0,-4.312426209E0,-1.634157903E-1,5.363216144E0
1.144685571E1,5.265820568E0,-4.024815704E0,-2.871510597E-1,6.634038245E0
1.145682671E1,6.412131529E0,-4.187942204E0,-5.242239332E-1,7.676529253E0
1.146679671E1,5.919430520E0,-4.667627310E0,-1.021824032E0,7.607268021E0
1.147676671E1,4.048622058E0,-4.784546480E0,-1.565316879E0,6.460142609E0
1.148673671E1,2.618533443E0,-4.704280582E0,-1.943948067E0,5.724151227E0
1.149670671E1,3.280962750E0,-4.847096485E0,-2.173978700E0,6.243816484E0
1.150667671E1,6.632936425E0,-5.593249442E0,-2.318582682E0,8.980874712E0
1.151664671E1,1.172846912E1,-6.284371621E0,-3.288544542E0,1.370637953E1
1.152661771E1,1.752714586E1,-6.083634369E0,-4.195096272E0,1.902131126E1
1.153658771E1,2.184843937E1,-5.177106028E0,-4.206324973E0,2.284403423E1
1.154655771E1,2.328112415E1,-4.127592798E0,-3.626905370E0,2.392074846E1
1.155652771E1,2.192767850E1,-3.464991583E0,-3.934794896E0,2.254577260E1
1.156649771E1,1.824707143E1,-3.230483737E0,-4.429377831E0,1.905284831E1
1.157646771E1,1.416440512E1,-3.234509253E0,-3.627810227E0,1.497509364E1
1.158643771E1,1.097180082E1,-3.570642292E0,-1.211423800E0,1.160161399E1
1.159640871E1,8.245242407E0,-4.022451090E0,8.454091501E-1,9.212971928E0
1.160637871E1,5.327001740E0,-3.926434254E0,1.603352286E0,6.809153548E0
1.161634871E1,2.214352847E0,-2.817288489E0,1.627082188E0,3.935463048E0
1.162631871E1,-8.138990897E-1,-7.519627503E-1,1.547668082E0,1.903459009E0
1.163628871E1,-3.251714392E0,1.437815126E0,1.417440649E0,3.827544490E0
1.164625871E1,-4.713990760E0,2.885431355E0,1.248618962E0,5.666257346E0
1.165622871E1,-5.237995423E0,3.612705407E0,1.237469784E0,6.482250217E0
1.166619871E1,-5.386646263E0,4.504551974E0,1.424307035E0,7.164886390E0
1.167616971E1,-5.929332780E0,5.242896559E0,1.431582287E0,8.043281630E0
1.168613971E1,-6.515049541E0,5.552629420E0,1.162453223E0,8.638799771E0
1.169610971E1,-7.362098250E0,5.666185271E0,1.082047210E0,9.352912506E0
1.170607971E1,-8.515698935E0,5.762349164E0,1.324942960E0,1.036712449E1
1.171604971E1,-9.832756194E0,6.044145783E0,1.636687117E0,1.165733835E1
1.172601971E1,-1.103104715E1,6.489305420E0,1.919063194E0,1.294132488E1
1.173598971E1,-1.158853121E1,7.080356011E0,2.197950822E0,1.375705218E1
1.174595971E1,-1.158368621E1,7.481745147E0,2.411732043E0,1.399909812E1
1.175593071E1,-1.117434486E1,7.625726985E0,2.292312019E0,1.372123863E1
1.176590071E1,-1.000702778E1,7.656799089E0,1.833424873E0,1.273297389E1
1.177587071E1,-8.812001325E0,8.028193177E0,1.098415833E0,1.197120589E1
1.178584071E1,-8.112480791E0,8.764537722E0,3.323252591E-1,1.194738072E1
1.179581071E1,-7.759075077E0,9.439970652E0,-3.786200774E-1,1.222536892E1
1.180578071E1,-7.850672294E0,9.908913839E0,-6.417120373E-1,1.265825514E1
1.181575071E1,-8.122127527E0,1.003153697E1,-4.121959591E-1,1.291396899E1
1.182572071E1,-8.248131516E0,9.703581845E0,2.187723311E-1,1.273730880E1
1.183569171E1,-8.297031196E0,9.323428627E0,1.223256152E0,1.254047063E1
1.184566171E1,-8.142269431E0,8.981817917E0,1.993012930E0,1.228583351E1
1.185563171E1,-7.939742931E0,8.567031641E0,2.571410147E0,1.196017137E1
1.186560171E1,-7.517962800E0,8.464404820E0,3.125950724E0,1.174467886E1
1.187557171E1,-6.569764861E0,8.688689979E0,3.299976726E0,1.138178326E1
1.188554171E1,-4.642614968E0,8.818263109E0,2.078189321E0,1.018010358E1
1.189551171E1,-1.179714350E0,8.447566009E0,-3.505763926E-2,8.529614672E0
1.190548271E1,3.490328738E0,6.125451316E0,-2.299881824E0,7.415726865E0
1.191545329E1,8.289227502E0,1.409505539E0,-4.594394735E0,9.581568839E0
1.192542329E1,1.337634313E1,-5.617020128E0,-6.220443428E0,1.578516351E1
1.193539329E1,1.765808607E1,-1.290868516E1,-6.277233925E0,2.275622600E1
1.194536329E1,2.043099244E1,-1.687116194E1,-5.323436108E0,2.702592328E1
1.195533329E1,2.175520201E1,-1.689287499E1,-4.519435769E0,2.791206441E1
1.196530329E1,2.308995528E1,-1.547713077E1,-4.257289889E0,2.812138206E1
1.197527429E1,2.490018776E1,-1.384345380E1,-3.449232752E0,2.869769625E1
1.198524429E1,2.630786049E1,-1.211281830E1,-1.726122473E0,2.901384824E1
1.199521429E1,2.721640086E1,-1.039794455E1,-3.178356394E-1,2.913675936E1
1.200518429E1,2.576496055E1,-8.164495867E0,6.970512557E-1,2.703660603E1
1.201515429E1,2.172149398E1,-6.757027790E0,1.111311355E0,2.277533179E1
1.202512429E1,1.648264370E1,-6.931351415E0,7.691030589E-1,1.789728178E1
1.203509429E1,1.106855704E1,-7.908112417E0,1.594230922E-1,1.360428655E1
1.204506429E1,5.365817311E0,-8.317987032E0,-1.102142044E-1,9.899143945E0
1.205503529E1,-2.152997428E-1,-7.860249449E0,-5.966101972E-1,7.885798571E0
1.206500529E1,-4.923222848E0,-6.625454328E0,-1.283480208E0,8.353567484E0
1.207497529E1,-8.234777645E0,-4.554055379E0,-1.656847731E0,9.554900714E0
1.208494529E1,-9.961405463E0,-2.382600338E0,-1.659273741E0,1.037591309E1
1.209491529E1,-1.018989594E1,-8.022987986E-1,-1.403374441E0,1.031732148E1
1.210488529E1,-9.863759301E0,3.973457855E-1,-1.084566118E0,9.931158788E0
1.211485529E1,-9.581892516E0,1.261903105E0,-1.056094855E0,9.722160253E0
1.212482529E1,-9.154283881E0,1.442654574E0,-1.278850967E0,9.355085536E0
1.213479629E1,-8.845332209E0,1.399155968E0,-9.787186503E-1,9.008630834E0
1.214476629E1,-8.822338033E0,1.761906702E0,-4.332465202E-1,9.006978747E0
1.215473629E1,-9.058594197E0,2.412788635E0,-1.059293373E-1,9.375014605E0
1.216470629E1,-9.427402647E0,2.966688649E0,1.750129203E-2,9.883191210E0
1.217467629E1,-9.814528084E0,3.509492110E0,5.237524649E-2,1.042325475E1
1.218464629E1,-1.002845899E1,3.897893702E0,-8.926127354E-2,1.075971806E1
1.219461629E1,-9.787808647E0,3.959284789E0,-3.746965957E-1,1.056491986E1
1.220458629E1,-9.486841933E0,4.016844487E0,-5.791819131E-1,1.031846215E1
1.221455729E1,-9.233852207E0,4.325360835E0,-8.019304240E-1,1.022818974E1
1.222452729E1,-8.961622218E0,4.699229465E0,-1.075179582E0,1.017592460E1
1.223449729E1,-8.749838406E0,5.296534238E0,-1.120980238E0,1.028929268E1
1.224446729E1,-8.919839770E0,5.807047620E0,-1.013167521E0,1.069167209E1
1.225443729E1,-9.530534667E0,5.551717254E0,-1.072848882E0,1.108168129E1
1.226440729E1,-1.060791573E1,4.955075555E0,-1.041552245E0,1.175438135E1
1.227437729E1,-1.205355793E1,4.377558636E0,-9.297528970E-1,1.285751605E1
1.228434729E1,-1.351129219E1,3.910710799E0,-7.850957054E-1,1.408776245E1
1.229431829E1,-1.437077325E1,3.480694573E0,-7.200033313E-1,1.480380908E1
1.230428829E1,-1.415625177E1,3.221926629E0,-9.465297282E-1,1.454909598E1
1.231425829E1,-1.332327029E1,3.218199906E0,-1.083517127E0,1.374919457E1
1.232422829E1,-1.206325613E1,3.041494126E0,-9.339535367E-1,1.247578070E1
1.233419829E1,-1.046213762E1,2.823656984E0,-1.006290026E0,1.088310535E1
1.234416829E1,-8.815227234E0,2.979734080E0,-8.738330501E-1,9.346155925E0
1.235413829E1,-6.084210320E0,3.464376456E0,-9.484002525E-1,7.065336686E0
1.236410929E1,-2.729817651E0,3.535397615E0,-1.223449184E0,4.631173567E0
1.237407929E1,1.454706563E0,1.685223684E0,-2.367785540E0,3.250008986E0
1.238404929E1,6.005082874E0,-2.339311061E0,-3.514992878E0,7.340883564E0
1.239401929E1,1.223214126E1,-7.698555810E0,-4.592875628E0,1.516534035E1
1.240398929E1,2.065578280E1,-1.487663926E1,-5.591099421E0,2.606215938E1
1.241395929E1,2.876970902E1,-2.174461855E1,-5.342012712E0,3.645629840E1
1.242392929E1,3.260602043E1,-2.345397253E1,-4.095350959E0,4.037342313E1
1.243389929E1,3.185216932E1,-1.820744134E1,-4.797042857E0,3.700112472E1
1.244387029E1,2.802493045E1,-1.022639192E1,-6.005889205E0,3.043101253E1
1.245384029E1,2.351069052E1,-3.535316046E0,-3.408600451E0,2.401810953E1
1.246381029E1,2.068039490E1,-2.158817162E0,1.556338187E0,2.085093315E1
1.247378029E1,1.815787566E1,-4.448839119E0,4.360182173E0,1.919666134E1
1.248375029E1,1.443192693E1,-5.045912635E0,5.256497183E0,1.616701927E1
1.249372029E1,1.036798810E1,-3.754776375E0,5.397811521E0,1.227721027E1
1.250369029E1,6.945580029E0,-2.668116077E0,4.543091265E0,8.717775151E0
1.251366029E1,4.254557485E0,-2.205708031E0,3.331004391E0,5.836265721E0
1.252363129E1,1.695850414E0,-1.813470373E0,2.236940056E0,3.341928221E0
1.253360129E1,-9.986056155E-1,-9.674531123E-1,1.314935889E0,1.913696709E0
1.254357129E1,-3.705368865E0,3.419118422E-1,6.115695675E-1,3.771031618E0
1.255354129E1,-5.676024381E0,1.807967266E0,1.359357040E-2,5.957028050E0
1.256351129E1,-6.618935267E0,3.281753293E0,-5.588382439E-1,7.408947897E0
1.257348129E1,-7.116668390E0,4.433092275E0,-1.670876956E0,8.549333652E0
1.258345129E1,-7.688380485E0,5.219809998E0,-2.169754379E0,9.542821646E0
1.259342129E1,-8.258354203E0,5.494620363E0,-2.212241417E0,1.016293654E1
1.260339229E1,-9.088843598E0,5.529538765E0,-2.365957700E0,1.089865279E1
1.261336229E1,-1.008628211E1,5.603948092E0,-2.342779337E0,1.177395159E1
1.262333229E1,-1.101336166E1,5.545541425E0,-2.098828822E0,1.250808727E1
1.263330229E1,-1.172485788E1,5.371799598E0,-1.656951227E0,1.300284625E1
1.264327229E1,-1.198957770E1,5.245587448E0,-1.322059552E0,1.315347873E1
1.265324229E1,-1.221375410E1,5.375461709E0,-1.023845122E0,1.338355845E1
1.266321229E1,-1.216049649E1,5.661350209E0,-8.028519452E-1,1.343775027E1
1.267318229E1,-1.145929488E1,5.872574442E0,-7.342752153E-1,1.289735360E1
1.268315329E1,-9.988328383E0,6.408702137E0,-1.032952160E0,1.191239510E1
1.269312329E1,-8.883168372E0,7.228742557E0,-1.392617903E0,1.153710466E1
1.270309329E1,-8.202909150E0,7.713360960E0,-1.954687940E0,1.142823087E1
1.271306329E1,-8.294017541E0,8.016649604E0,-2.581711187E0,1.182043275E1
1.272303329E1,-8.669910477E0,8.198833641E0,-2.948477789E0,1.229153131E1
1.273300329E1,-9.095854409E0,8.089729275E0,-2.764536663E0,1.248282621E1
1.274297329E1,-9.567865630E0,7.588228206E0,-2.370916139E0,1.243971476E1
1.275294329E1,-9.867202141E0,6.635112759E0,-2.368736297E0,1.212424476E1
1.276291429E1,-1.002012086E1,5.779441745E0,-2.486844791E0,1.183170174E1
1.277288429E1,-1.004665553E1,5.259614334E0,-2.306189801E0,1.157226605E1
1.278285429E1,-9.510728978E0,4.821126077E0,-2.316265723E0,1.091156768E1
1.279282429E1,-8.850467234E0,4.547543920E0,-1.831413431E0,1.011755905E1
1.280279429E1,-6.627805493E0,4.207376302E0,-1.008385084E0,7.914964402E0
1.281276429E1,-7.992430437E-1,2.396287500E0,-1.744857098E0,3.070099268E0
1.282273429E1,6.745340960E0,-1.244136633E0,-2.830480392E0,7.420183278E0
1.283270429E1,1.421089751E1,-5.425581118E0,-3.759634534E0,1.566912219E1
1.284267529E1,2.179512446E1,-9.672652997E0,-4.842809014E0,2.433188167E1
1.285264529E1,2.832240170E1,-1.380593104E1,-4.915965868E0,3.188932251E1
1.286261529E1,3.133959538E1,-1.617422178E1,-3.176993408E0,3.541001237E1
1.287258529E1,3.123847831E1,-1.606431752E1,-1.616177423E0,3.516414159E1
1.288255529E1,2.855644235E1,-1.461944012E1,-4.674030304E-1,3.208452735E1
1.289252529E1,2.330891714E1,-1.245216263E1,1.120529856E0,2.645028468E1
1.290249529E1,1.942739622E1,-1.133403700E1,3.407650863E0,2.274854288E1
1.291246654E1,1.760692176E1,-1.182295778E1,5.318909193E0,2.186496787E1
1.292243654E1,1.574381759E1,-1.206816428E1,5.293611799E0,2.053121300E1
1.293240654E1,1.310410612E1,-1.125261686E1,3.744411601E0,1.767369802E1
1.294237654E1,9.542126772E0,-9.106092299E0,2.200778536E0,1.337222967E1
1.295234654E1,6.039065137E0,-6.340956881E0,1.206094575E0,8.839270672E0
1.296231654E1,3.157794076E0,-3.407877735E0,7.044678640E-1,4.699103005E0
1.297228654E1,5.413293779E-1,-4.979062003E-1,6.667556620E-1,9.927291637E-1
1.298225654E1,-2.136486645E0,2.009409985E0,1.122520979E0,3.140438985E0
1.299222754E1,-5.215854941E0,3.991159716E0,1.807091353E0,6.811760257E0
1.300219754E1,-7.944122495E0,5.336751972E0,2.105846651E0,9.799213945E0
1.301216754E1,-9.283721355E0,5.569074129E0,1.392513823E0,1.091518042E1
1.302213754E1,-9.492034260E0,4.680218120E0,-1.224001307E-2,1.058316143E1
1.303210754E1,-9.463514466E0,3.385649252E0,-1.074376175E0,1.010816556E1
1.304207754E1,-9.681141985E0,2.263381750E0,-1.568926658E0,1.006523412E1
1.305204754E1,-1.046042673E1,1.473107750E0,-1.479332696E0,1.066672391E1
1.306201754E1,-1.168597272E1,1.100901192E0,-1.144300688E0,1.179336110E1
1.307198754E1,-1.252832846E1,9.657515725E-1,-6.965308535E-1,1.258478626E1
1.308195854E1,-1.261600161E1,8.278350511E-1,-2.407152504E-1,1.264542412E1
1.309192854E1,-1.201612055E1,7.518311879E-1,6.055493474E-2,1.203977035E1
1.310189854E1,-1.107544973E1,8.723838177E-1,3.539366412E-1,1.111539075E1
1.311186854E1,-1.008630901E1,1.205699961E0,7.546650410E-1,1.018611119E1
1.312183854E1,-9.184857218E0,1.544011087E0,1.151571701E0,9.384651817E0
1.313180854E1,-8.497783066E0,2.238666447E0,1.726285172E0,8.955668874E0
1.314177854E1,-8.841301138E0,3.536304810E0,2.716916939E0,9.902307569E0
1.315174854E1,-9.989184415E0,4.970782346E0,3.324915100E0,1.164248869E1
1.316171954E1,-1.113475453E1,5.991474649E0,3.394971761E0,1.309222518E1
1.317168954E1,-1.216048948E1,6.140302659E0,3.210331893E0,1.399596556E1
1.318165954E1,-1.255940407E1,5.409125884E0,2.675855452E0,1.393404018E1
1.319162954E1,-1.214816939E1,4.399545337E0,1.471261200E0,1.300379284E1
1.320159954E1,-1.104284800E1,4.454208032E0,-7.877251983E-2,1.190758860E1
1.321156954E1,-9.663746518E0,5.735636744E0,-1.678949622E0,1.136241160E1
1.322153954E1,-9.273017442E0,6.746301073E0,-2.675386505E0,1.177536087E1
1.323150954E1,-9.814429851E0,6.794863953E0,-2.812846359E0,1.226398443E1
1.324148054E1,-1.109486951E1,5.947991245E0,-2.221974692E0,1.278326643E1
1.325145054E1,-1.202739515E1,4.866855104E0,-8.416528988E-1,1.300203416E1
1.326142054E1,-1.109300775E1,3.979963467E0,5.530285235E-1,1.179833763E1
1.327139054E1,-6.918630797E0,3.840909078E0,2.436827123E-1,7.917033277E0
1.328136054E1,1.285891600E0,2.857031721E0,-2.847156651E0,4.233491285E0
1.329133054E1,1.227904528E1,-1.913146104E0,-7.756689413E0,1.464927683E1
1.330130054E1,2.281201607E1,-9.710005596E0,-1.177558130E1,2.744697800E1
1.331127054E1,2.918549985E1,-1.777518943E1,-1.222370723E1,3.629283371E1
1.332124154E1,3.068385587E1,-2.145348335E1,-9.517481343E0,3.863073142E1
1.333121154E1,2.954197652E1,-1.887650314E1,-6.706391487E0,3.569350689E1
1.334118154E1,2.671369000E1,-1.168814438E1,-2.555958587E0,2.927058040E1
1.335115154E1,2.338343172E1,-4.489751210E0,1.440769140E0,2.385410993E1
1.336112154E1,1.988907015E1,-4.230209094E-1,2.955153555E0,2.011186194E1
1.337109154E1,1.805347362E1,-2.995896953E-1,1.743654618E0,1.813995577E1
1.338106154E1,1.915339102E1,-2.819168953E0,-6.924667463E-1,1.937213492E1
1.339103154E1,1.974928895E1,-4.677723698E0,-3.545909154E0,2.060313046E1
1.340100254E1,1.848131790E1,-5.560385166E0,-5.932038871E0,2.019074243E1
1.341097254E1,1.526942129E1,-5.454504955E0,-7.099048390E0,1.770037680E1
1.342094254E1,1.058682599E1,-4.302459045E0,-6.607909173E0,1.320062506E1
1.343091254E1,5.879953043E0,-2.705705780E0,-4.883603868E0,8.108284548E0
1.344088254E1,1.406643620E0,-1.016884596E0,-2.619307029E0,3.142207802E0
1.345085254E1,-2.861175351E0,6.565110478E-1,-8.997659632E-1,3.070327333E0
1.346082254E1,-6.048737016E0,1.605327622E0,-2.994885385E-1,6.265300444E0
1.347079254E1,-7.950781889E0,2.334536225E0,-4.935163300E-2,8.286581178E0
1.348076354E1,-9.589507345E0,3.069898730E0,3.235849142E-2,1.006896104E1
1.349073354E1,-1.107925510E1,3.233550017E0,-7.462158144E-2,1.154172031E1
1.350070354E1,-1.185932279E1,2.820963171E0,-7.607221717E-1,1.221392928E1
1.351067354E1,-1.211286040E1,2.252280519E0,-1.553164319E0,1.241798993E1
1.352064354E1,-1.196432709E1,1.888482841E0,-2.232763390E0,1.231652233E1
1.353061354E1,-1.200661415E1,2.118307652E0,-2.306980929E0,1.240839118E1
1.354058354E1,-1.211105478E1,2.806948565E0,-1.942025210E0,1.258284824E1
1.355055354E1,-1.194782858E1,3.513276721E0,-1.347220706E0,1.252632128E1
1.356052454E1,-1.150932717E1,4.055292854E0,-4.796255384E-1,1.221229105E1
1.357049454E1,-1.084245690E1,4.773378299E0,3.166606414E-1,1.185091920E1
1.358046454E1,-1.001588280E1,5.476945399E0,8.861157113E-1,1.144989259E1
1.359043454E1,-9.297744732E0,5.804822754E0,7.224877401E-1,1.098480828E1
1.360040454E1,-8.753840241E0,6.236778209E0,1.332673272E-1,1.074918051E1
1.361037454E1,-8.430339527E0,6.799104939E0,-1.091554783E0,1.088530865E1
1.362034454E1,-8.418640417E0,6.937253594E0,-3.064817500E0,1.133102379E1
1.363031454E1,-8.764282783E0,6.768076689E0,-4.973628185E0,1.213904824E1
1.364028454E1,-8.948418036E0,7.041787777E0,-6.039329431E0,1.288931575E1
1.365025554E1,-8.854248043E0,6.772560918E0,-6.374488324E0,1.284131579E1
1.366022554E1,-8.744450782E0,6.069023931E0,-5.361569894E0,1.191825921E1
1.367019554E1,-8.716349064E0,5.573497548E0,-3.582885484E0,1.094877547E1
1.368016554E1,-9.308803571E0,5.246921198E0,-2.235729682E-1,1.068803026E1
1.369013554E1,-1.028929159E1,5.161046650E0,1.443627843E0,1.160129240E1
1.370010554E1,-1.024260508E1,4.124109027E0,1.932450979E0,1.120953170E1
1.371007554E1,-1.009111776E1,2.986820320E0,2.244509277E0,1.076055645E1
1.372004554E1,-9.110263118E0,2.739583670E0,1.944124360E0,9.709883228E0
1.373001654E1,-7.659926764E0,3.342355006E0,1.615604396E0,8.512108586E0
1.373998654E1,-5.732214369E0,4.190489543E0,9.920666742E-1,7.169566268E0
1.374995654E1,-1.843653408E0,3.375849319E0,-1.269925193E0,4.050694571E0
1.375992654E1,4.941905871E0,-7.469092941E-1,-4.410398061E0,6.665727131E0
1.376989654E1,1.237787492E1,-7.212055188E0,-6.131399689E0,1.558266953E1
1.377986654E1,1.795801315E1,-1.414377030E1,-6.266362782E0,2.370240024E1
1.378983654E1,2.171986378E1,-1.839509252E1,-4.465694010E0,2.881101065E1
1.379980654E1,2.403948697E1,-1.702669086E1,-1.592940588E0,2.950156937E1
1.380977754E1,2.570109025E1,-1.285172626E1,-1.381125201E0,2.876839263E1
1.381974754E1,2.877416928E1,-1.055460900E1,-3.237372926E0,3.081936359E1
1.382971754E1,3.085465070E1,-1.125101823E1,-4.177970070E0,3.310665062E1
1.383968754E1,3.100421546E1,-1.309519379E1,-2.931569395E0,3.378371762E1
1.384965754E1,2.944293638E1,-1.304094918E1,-4.723215620E-1,3.220521613E1
1.385962754E1,2.522402528E1,-1.062054220E1,1.604754595E0,2.741573645E1
1.386959754E1,1.946996512E1,-6.440506897E0,3.551801393E0,2.081285574E1
1.387956754E1,1.362315410E1,-2.515583271E0,5.248468956E0,1.481434822E1
1.388953754E1,8.740811475E0,-1.865440133E-1,6.523374807E0,1.090829972E1
1.389950854E1,4.449210709E0,1.066551138E0,7.591999075E0,8.864054221E0
1.390947821E1,1.560124844E-1,2.119098195E0,7.795967499E0,8.080348155E0
1.391944821E1,-3.105084935E0,2.625884562E0,6.565753087E0,7.723078129E0
1.392941821E1,-4.744529014E0,2.844556979E0,4.723093121E0,7.273903257E0
1.393938821E1,-5.402933097E0,3.548764934E0,2.490323299E0,6.927274265E0
1.394935821E1,-5.808282552E0,4.942037433E0,2.512175075E-1,7.630399100E0
1.395932821E1,-6.709405727E0,6.435909816E0,-1.251281930E0,9.380978991E0
1.396929821E1,-7.714143902E0,7.480694402E0,-1.904776107E0,1.091315614E1
1.397926921E1,-8.706449143E0,7.350942932E0,-2.301654700E0,1.162481110E1
1.398923921E1,-1.029354602E1,6.154545892E0,-2.519911380E0,1.225501849E1
1.399920921E1,-1.256173945E1,5.129699142E0,-2.765231313E0,1.384765740E1
1.400917921E1,-1.439526021E1,4.911977482E0,-3.011220167E0,1.550543409E1
1.401914921E1,-1.497638691E1,4.786839174E0,-3.511551207E0,1.611015165E1
1.402911921E1,-1.442174109E1,4.651790419E0,-4.522754649E0,1.581395206E1
1.403908921E1,-1.323288871E1,4.902498561E0,-5.397919110E0,1.510898297E1
1.404905921E1,-1.168267022E1,5.382294180E0,-5.656947255E0,1.405186558E1
1.405902921E1,-1.030855816E1,6.066075765E0,-5.266180172E0,1.306890585E1
1.406900021E1,-9.191665716E0,6.899924385E0,-4.269116467E0,1.226054773E1
1.407897021E1,-8.380252862E0,7.479478181E0,-2.864874884E0,1.159218444E1
1.408894021E1,-7.827383419E0,7.905744295E0,-1.275295275E0,1.119799545E1
1.409891021E1,-7.514939205E0,8.195598961E0,3.992690078E-1,1.112661536E1
1.410888021E1,-7.235326522E0,8.294875327E0,1.761217607E0,1.114705315E1
1.411885021E1,-7.066954193E0,8.141425678E0,2.905358666E0,1.116538233E1
1.412882021E1,-7.087169772E0,7.849334452E0,3.916915280E0,1.127751090E1
1.413879021E1,-7.133559242E0,7.540151814E0,4.651997995E0,1.137464910E1
1.414876021E1,-7.306844986E0,7.100868044E0,5.220645565E0,1.144846936E1
1.415873121E1,-7.696825034E0,6.504519875E0,5.570891443E0,1.151454410E1
1.416870121E1,-8.081167781E0,5.986657128E0,5.632698852E0,1.152703920E1
1.417867121E1,-8.443660069E0,5.464303719E0,5.724739873E0,1.157266854E1
1.418864121E1,-8.166998475E0,4.571281861E0,5.818180718E0,1.102033161E1
1.419861121E1,-6.923080528E0,3.141822991E0,5.357326570E0,9.300593727E0
1.420858121E1,-4.773970914E0,1.459252188E0,4.337587363E0,6.613235166E0
1.421855121E1,-1.882564289E0,-3.212840348E-1,3.451842949E0,3.944932380E0
1.422852121E1,2.988276862E0,-3.324694953E0,1.726787009E0,4.792200800E0
1.423849221E1,9.145652806E0,-7.035431854E0,-4.101573274E-2,1.153871522E1
1.424846221E1,1.308374846E1,-9.869298953E0,-1.167113600E0,1.643014576E1
1.425843221E1,1.480412326E1,-1.123197853E1,-1.885002286E0,1.867813269E1
1.426840221E1,1.612977710E1,-1.128353577E1,-2.465813233E0,1.983855145E1
1.427837221E1,1.938427067E1,-1.145685075E1,-2.457950774E0,2.265062693E1
1.428834221E1,2.486221127E1,-1.332675172E1,-1.758274411E0,2.826346386E1
1.429831221E1,2.968585077E1,-1.519591478E1,-7.938080567E-1,3.335859249E1
1.430828221E1,3.196083398E1,-1.621280873E1,-2.686243030E-1,3.583883696E1
1.431825321E1,3.138832842E1,-1.596040665E1,3.272104803E-1,3.521461072E1
1.432822321E1,2.972193511E1,-1.401275876E1,5.933622882E-1,3.286491919E1
1.433819321E1,2.740280074E1,-1.142612714E1,6.940750229E-1,2.969767011E1
1.434816321E1,2.407206532E1,-9.097389303E0,8.112470850E-1,2.574655206E1
1.435813321E1,1.936406035E1,-6.863699130E0,3.276101375E-1,2.054712942E1
1.436810321E1,1.316929322E1,-4.131992536E0,-9.186931810E-1,1.383284654E1
1.437807321E1,5.924774290E0,-1.218657683E0,-2.779966588E0,6.657048233E0
1.438804321E1,-1.634750519E0,5.583775198E-1,-4.678398174E0,4.987143891E0
1.439801321E1,-7.442801521E0,4.847014332E-1,-5.495240167E0,9.264334539E0
1.440798421E1,-1.131470961E1,-8.065742826E-1,-5.128574138E0,1.244891515E1
1.441795421E1,-1.490614548E1,-2.047205802E0,-4.697974652E0,1.576246143E1
1.442792421E1,-1.710860100E1,-2.123850812E0,-4.393237653E0,1.779088270E1
1.443789421E1,-1.749602464E1,-1.273687584E0,-3.096375507E0,1.781349768E1
1.444786421E1,-1.678990903E1,-5.996600318E-1,-1.154978069E0,1.684026757E1
1.445783421E1,-1.605621678E1,-6.780919513E-1,-7.971392155E-2,1.607072682E1
1.446780421E1,-1.569296085E1,-8.612264532E-1,-5.365419701E-2,1.571666663E1
1.447777421E1,-1.521474047E1,-7.072558165E-1,-3.920103474E-1,1.523621379E1
1.448774421E1,-1.440003154E1,-2.408090982E-1,-8.326155885E-1,1.442609255E1
1.449771521E1,-1.278245313E1,6.908754265E-1,-1.559433850E0,1.289574545E1
1.450768521E1,-1.096524609E1,1.962176177E0,-2.286339819E0,1.137163607E1
1.451765521E1,-9.649345996E0,3.022813734E0,-2.393394005E0,1.039113160E1
1.452762521E1,-8.914594817E0,3.964645809E0,-1.689184588E0,9.901603997E0
1.453759521E1,-8.535363706E0,4.553920601E0,-4.429932439E-1,9.684362108E0
1.454756521E1,-8.502841492E0,4.595954480E0,9.553135617E-1,9.712555535E0
1.455753521E1,-8.630705481E0,4.248484859E0,2.168473839E0,9.861084093E0
1.456750521E1,-8.955099065E0,3.755027513E0,3.274009241E0,1.024759325E1
1.457747521E1,-9.362518433E0,3.330048663E0,4.076408612E0,1.074072077E1
1.458744621E1,-9.598727235E0,3.006346805E0,4.484627295E0,1.101297270E1
1.459741621E1,-9.592216360E0,2.672804959E0,4.566304711E0,1.095470857E1
1.460738621E1,-9.604357519E0,2.403596812E0,4.286968017E0,1.078883941E1
1.461735621E1,-9.781846241E0,2.500588963E0,3.699842953E0,1.075296698E1
1.462732621E1,-9.896460439E0,2.922529600E0,3.314681304E0,1.083827572E1
1.463729621E1,-9.894385847E0,3.214034058E0,3.296430974E0,1.091308130E1
1.464726621E1,-9.801807466E0,3.310725662E0,3.508537845E0,1.092456735E1
1.465723621E1,-9.477229110E0,3.148164004E0,3.626619734E0,1.062455547E1
1.466720621E1,-8.813909272E0,2.786512546E0,3.517586703E0,9.890554334E0
1.467717721E1,-7.886128056E0,2.409692827E0,3.353767601E0,8.901988113E0
1.468714721E1,-6.852495865E0,1.778038293E0,3.230259204E0,7.781561172E0
1.469711721E1,-5.215636840E0,7.107223383E-1,2.856094705E0,5.988762047E0
1.470708721E1,-2.450023704E0,-1.058564134E0,1.768138518E0,3.201482156E0
1.471705721E1,2.083543031E0,-3.892877084E0,2.327074885E-2,4.415448457E0
1.472702721E1,6.752246522E0,-7.159288745E0,-1.954578012E0,1.003337549E1
1.473699721E1,1.052165058E1,-9.625777624E0,-3.497141329E0,1.468300798E1
1.474696721E1,1.298723665E1,-1.048895880E1,-4.371128453E0,1.725668962E1
1.475693721E1,1.411363960E1,-9.234484876E0,-4.295233348E0,1.740458454E1
1.476690821E1,1.561773993E1,-7.496681859E0,-3.676188627E0,1.770955681E1
1.477687821E1,1.872786224E1,-7.638109633E0,-3.046666573E0,2.045374587E1
1.478684821E1,2.319447309E1,-8.152695601E0,-1.365005305E0,2.462342923E1
1.479681821E1,2.510937541E1,-7.471201447E0,1.824641771E0,2.626078640E1
1.480678821E1,2.315800284E1,-5.197540877E0,3.971358412E0,2.406406479E1
1.481675821E1,2.033816204E1,-2.210136127E0,3.262460990E0,2.071639903E1
1.482672821E1,1.919383855E1,-7.688480473E-1,4.122313347E-1,1.921365401E1
1.483669821E1,1.901345663E1,-2.071023850E0,-2.726067832E0,1.931921630E1
1.484666821E1,1.843350171E1,-4.657160502E0,-5.372162125E0,1.975710645E1
1.485663921E1,1.629051822E1,-5.848849365E0,-7.318597305E0,1.879233592E1
1.486660921E1,1.258171587E1,-5.200582598E0,-8.455333450E0,1.602617538E1
1.487657921E1,8.128299848E0,-3.764279855E0,-8.741090387E0,1.251581889E1
1.488654921E1,4.117194695E0,-2.282457414E0,-8.208986746E0,9.462999915E0
1.489651921E1,7.957639503E-1,-1.044944215E0,-7.154501045E0,7.274065842E0
1.490648921E1,-1.793542770E0,-4.898578003E-1,-5.641938622E0,5.940389528E0
1.491645871E1,-3.460343632E0,-1.072686622E0,-3.599835978E0,5.107196266E0
1.492642871E1,-4.489524338E0,-1.911219739E0,-1.533491800E0,5.114702999E0
1.493639871E1,-5.705020139E0,-2.463710574E0,-2.253304951E-1,6.218351744E0
1.494636971E1,-7.877435585E0,-2.908083469E0,1.279031646E-1,8.398053351E0
1.495633971E1,-1.059788424E1,-2.552599362E0,-6.128314698E-1,1.091817184E1
1.496630971E1,-1.297850793E1,-5.017694557E-1,-8.954753494E-1,1.301903671E1
1.497627971E1,-1.381030008E1,2.079597330E0,-1.427996774E-1,1.396672851E1
1.498624971E1,-1.253341553E1,4.125208012E0,9.101847513E-1,1.322619682E1
1.499621971E1,-1.058060455E1,5.504767621E0,1.882981195E0,1.207465434E1
1.500618971E1,-8.675782835E0,6.487355958E0,2.729680241E0,1.117166726E1
1.501615971E1,-7.097597696E0,7.261850077E0,3.235069124E0,1.065720563E1
1.502612971E1,-6.052033092E0,7.901032609E0,3.377531855E0,1.051004958E1
1.503609971E1,-5.595323449E0,8.203932998E0,3.019655360E0,1.037932944E1
1.504607071E1,-5.624633203E0,8.157390330E0,2.124293447E0,1.013371296E1
1.505604071E1,-6.163223160E0,7.759621791E0,1.194429452E0,9.981167856E0
1.506601071E1,-6.798780418E0,7.105970909E0,4.066058747E-1,9.842944990E0
1.507598071E1,-7.400068899E0,6.486175405E0,7.881330416E-2,9.840614952E0
1.508595071E1,-8.046378018E0,6.163028448E0,2.316269231E-1,1.013808512E1
1.509592071E1,-8.471178820E0,6.169570312E0,5.978405245E-1,1.049675577E1
1.510589071E1,-8.579238288E0,6.285991300E0,1.121559112E0,1.069462066E1
1.511586071E1,-8.471188760E0,6.256324866E0,1.796593262E0,1.068318245E1
1.512583071E1,-8.208275140E0,5.918354632E0,2.356583590E0,1.039019675E1
1.513580171E1,-7.977577924E0,5.307008940E0,3.019651559E0,1.004611313E1
1.514577171E1,-7.972945175E0,4.842126644E0,3.682119166E0,1.002856155E1
1.515574171E1,-8.277292165E0,4.508873359E0,4.106131178E0,1.028123620E1
1.516571171E1,-8.774182704E0,4.137494181E0,4.297378399E0,1.061002363E1
1.517568171E1,-8.893365331E0,3.968798794E0,4.202148599E0,1.060666600E1
1.518565171E1,-8.313933157E0,3.960589595E0,3.775503293E0,9.952998523E0
1.519562171E1,-7.097074370E0,4.083573790E0,3.501506568E0,8.905312334E0
1.520559171E1,-5.053306439E0,4.105537686E0,3.038581628E0,7.185006887E0
1.521556171E1,-1.461808006E0,3.059770475E0,1.412008440E0,3.673260928E0
1.522553271E1,3.571924878E0,4.910842538E-2,-1.177485976E0,3.761320539E0
1.523550271E1,8.089905276E0,-4.312117476E0,-3.304024461E0,9.744614006E0
1.524547271E1,1.070284176E1,-8.433361952E0,-4.187582600E0,1.425511360E1
1.525544271E1,1.153199332E1,-1.039908944E1,-4.141418832E0,1.607106969E1
1.526541271E1,1.121947133E1,-9.485923920E0,-3.081338807E0,1.501179331E1
1.527538271E1,1.170347227E1,-7.555162786E0,-2.178728393E0,1.409959593E1
1.528535271E1,1.474083768E1,-6.477939602E0,-1.951471971E0,1.621925522E1
1.529532271E1,1.790470409E1,-4.416202008E0,-1.126473697E0,1.847566539E1
1.530529271E1,1.964335144E1,-1.715232764E0,-7.341880918E-2,1.971823191E1
1.531526271E1,2.085833970E1,9.886682725E-1,4.402859831E-1,2.088639873E1
1.532523371E1,2.142356197E1,2.235830839E0,-3.950244409E-1,2.154353712E1
1.533520371E1,2.269849121E1,-3.582828766E-1,-2.490594318E0,2.283753336E1
1.534517371E1,2.358898941E1,-5.287175184E0,-4.139914928E0,2.452618068E1
1.535514371E1,2.326922858E1,-1.002294624E1,-5.311150523E0,2.588676824E1
1.536511371E1,2.104173177E1,-1.267201326E1,-5.966181933E0,2.527705922E1
1.537508371E1,1.577839218E1,-1.262938705E1,-5.806855831E0,2.102804441E1
1.538505371E1,9.812672178E0,-1.085828882E1,-5.073409166E0,1.548968857E1
1.539502371E1,5.083558179E0,-8.512320414E0,-3.893683999E0,1.065189831E1
1.540499371E1,1.815936436E0,-6.194671240E0,-1.944373159E0,6.741822001E0
1.541496471E1,-2.133146131E-1,-4.254074797E0,-6.738316700E-2,4.259952582E0
1.542493471E1,-1.522043098E0,-2.844596448E0,1.261525960E0,3.464071577E0
1.543490471E1,-2.678037048E0,-1.857339985E0,2.142155813E0,3.900054587E0
1.544487471E1,-3.801959605E0,-1.962838374E0,1.830790264E0,4.653968662E0
1.545484471E1,-4.868598744E0,-2.530725805E0,6.598313892E-1,5.526590657E0
1.546481471E1,-6.080951666E0,-2.586227868E0,-4.413433059E-1,6.622788814E0
1.547478471E1,-7.840730858E0,-1.995285743E0,-1.395659040E0,8.210121177E0
1.548475471E1,-9.948929844E0,-1.021324095E0,-1.943431026E0,1.018828897E1
1.549472471E1,-1.200934831E1,1.068678063E-1,-1.975625650E0,1.217123511E1
1.550469471E1,-1.372682289E1,1.307280130E0,-1.560960996E0,1.387700426E1
1.551466571E1,-1.488668361E1,2.402387315E0,-1.026427325E0,1.511417767E1
1.552463571E1,-1.502751029E1,3.163381967E0,-5.619782352E-1,1.536713605E1
1.553460571E1,-1.424532591E1,3.777941289E0,-1.893784511E-1,1.473899640E1
1.554457571E1,-1.295654228E1,4.350980118E0,2.135847910E-1,1.366925873E1
1.555454571E1,-1.140242603E1,4.703025769E0,5.182469094E-1,1.234513470E1
1.556451571E1,-9.812469864E0,4.955011235E0,7.349295918E-1,1.101711499E1
1.557448571E1,-8.389608407E0,5.228659759E0,8.704983830E-1,9.923818798E0
1.558445571E1,-7.291941018E0,5.590896522E0,9.669867969E-1,9.239350150E0
1.559442571E1,-6.894930278E0,6.165664372E0,1.132510947E0,9.318694208E0
1.560439571E1,-7.061254327E0,6.927811511E0,1.002075938E0,9.942838689E0
1.561436671E1,-7.465296344E0,7.690912914E0,6.613937652E-1,1.073863272E1
1.562433671E1,-7.959390745E0,8.134247051E0,3.071974345E-1,1.138473743E1
1.563430671E1,-8.188783447E0,8.161565242E0,-8.290255442E-3,1.156146142E1
1.564427671E1,-8.050731854E0,7.859143156E0,-6.012457967E-2,1.125095683E1
1.565424671E1,-7.816599399E0,7.404213991E0,2.345995744E-1,1.076924547E1
1.566421671E1,-7.659936705E0,6.902316481E0,5.740714467E-1,1.032696282E1
1.567418671E1,-7.596760463E0,6.279596200E0,9.820574105E-1,9.904975251E0
1.568415671E1,-7.631318092E0,5.604876630E0,1.523514258E0,9.590242623E0
1.569412671E1,-7.852915286E0,4.952550142E0,2.060274621E0,9.510034854E0
1.570409771E1,-8.224169626E0,4.469940551E0,2.491596823E0,9.686350670E0
1.571406771E1,-7.699106618E0,3.881713287E0,2.546986327E0,8.990610664E0
1.572403771E1,-6.282561908E0,2.960172220E0,2.146842941E0,7.269259819E0
1.573400771E1,-3.630651973E0,2.292616659E0,1.566687905E0,4.570802543E0
1.574397771E1,7.390558988E-1,1.233566329E0,7.657165709E-1,1.629175060E0
1.575394771E1,5.456864306E0,-1.801724486E0,-3.146886680E-1,5.755224421E0
1.576391771E1,1.049439320E1,-6.840233084E0,-1.227005460E0,1.258676367E1
1.577388771E1,1.564380214E1,-1.309509673E1,-8.582426190E-1,2.041927237E1
1.578385771E1,1.845778871E1,-1.696002325E1,6.420409432E-1,2.507477954E1
1.579382771E1,1.951772401E1,-1.649243895E1,6.920463315E-1,2.556210127E1
1.580379871E1,2.110521149E1,-1.454342749E1,-5.211792880E-1,2.563616319E1
1.581376871E1,2.340100377E1,-1.318853758E1,-1.193264687E0,2.688807136E1
1.582373871E1,2.507443713E1,-1.243698559E1,-1.175314904E0,2.801405670E1
1.583370871E1,2.666374776E1,-1.233801328E1,-1.026831003E0,2.939789786E1
1.584367871E1,2.826261509E1,-1.237665636E1,-1.128946484E0,3.087444825E1
1.585364871E1,2.844464593E1,-1.183471069E1,-1.568429352E0,3.084831000E1
1.586361871E1,2.627652643E1,-1.030871721E1,-2.519105926E0,2.833851419E1
1.587358871E1,2.149054768E1,-7.001556594E0,-2.769162103E0,2.277133490E1
1.588355871E1,1.518480273E1,-3.573646883E0,-2.755210647E0,1.584109755E1
1.589352871E1,8.391038051E0,-2.553373826E-1,-2.441872393E0,8.742851797E0
1.590349971E1,2.068006979E0,2.856168965E0,-2.023771623E0,4.065710959E0
1.591347033E1,-3.132374475E0,5.424203514E0,-7.501875356E-1,6.308449489E0
1.592344033E1,-7.023188369E0,7.043878157E0,6.710171127E-1,9.969536514E0
1.593341033E1,-9.163928279E0,7.107613392E0,1.285804769E0,1.166829223E1
1.594338033E1,-1.020520161E1,6.406582521E0,1.295623852E0,1.211895543E1
1.595335033E1,-1.123249893E1,6.013803996E0,1.314931065E0,1.280874367E1
1.596332033E1,-1.230322001E1,5.932933495E0,1.346126107E0,1.372519501E1
1.597329033E1,-1.371909404E1,5.251732872E0,8.325967312E-1,1.471351273E1
1.598326033E1,-1.511673529E1,4.508761092E0,-4.409838483E-2,1.577487106E1
1.599323033E1,-1.558119249E1,4.240090012E0,-1.062310372E0,1.618271999E1
1.600320133E1,-1.518677207E1,4.349530300E0,-2.070092096E0,1.593241165E1
1.601317133E1,-1.407542687E1,4.690367132E0,-2.526968969E0,1.505000856E1
1.602314133E1,-1.246164915E1,5.191456264E0,-2.521729864E0,1.373328217E1
1.603311133E1,-1.087119012E1,5.831466762E0,-2.213475180E0,1.253348521E1
1.604308133E1,-9.439649055E0,6.404247143E0,-1.709815904E0,1.153450589E1
1.605305133E1,-8.284262631E0,6.704282396E0,-1.005249734E0,1.070452880E1
1.606302133E1,-7.516430830E0,6.807593926E0,-2.797284579E-1,1.014486646E1
1.607299133E1,-6.944301828E0,6.685367239E0,1.147036600E-1,9.640052900E0
1.608296133E1,-6.639750186E0,6.330582751E0,3.354209943E-1,9.180145301E0
1.609293133E1,-6.628815892E0,5.878117602E0,4.941468792E-1,8.873423681E0
1.610290233E1,-6.855774398E0,5.682028887E0,8.525566404E-1,8.945051576E0
1.611287233E1,-7.249433514E0,5.911399369E0,1.344211729E0,9.450176398E0
1.612284233E1,-7.582879758E0,6.154402635E0,1.759438884E0,9.923324161E0
1.613281233E1,-7.707158818E0,6.147077243E0,2.012209339E0,1.006160236E1
1.614278233E1,-7.619898480E0,5.770535266E0,2.195048118E0,9.807148737E0
1.615275233E1,-7.254328803E0,5.201481900E0,2.496935331E0,9.269055313E0
1.616272233E1,-6.665742813E0,4.694842591E0,2.917005150E0,8.659249001E0
1.617269233E1,-6.229714773E0,4.232983013E0,3.166800834E0,8.170441779E0
1.618266233E1,-5.693439728E0,3.581292118E0,2.979826466E0,7.356648349E0
1.619263233E1,-3.747823159E0,2.655538424E0,2.159842179E0,5.075724676E0
1.620260233E1,6.506395662E-1,1.176705665E0,9.139383714E-1,1.625807926E0
1.621257333E1,7.814245310E0,-2.576913839E0,2.431669879E-1,8.231770459E0
1.622254333E1,1.468426002E1,-7.660940087E0,-2.755816126E-1,1.656482540E1
1.623251333E1,2.003690648E1,-1.178868374E1,-9.738245308E-1,2.326798272E1
1.624248333E1,2.205665171E1,-1.360411323E1,-1.483256178E0,2.595703816E1
1.625245333E1,2.104970972E1,-1.185646818E1,-2.463023819E0,2.428441070E1
1.626242333E1,2.067744790E1,-1.025861008E1,-5.268136650E0,2.367592018E1
1.627239333E1,2.221871314E1,-9.705483359E0,-6.824922734E0,2.518823517E1
1.628236333E1,2.518414726E1,-9.738910722E0,-5.101006855E0,2.747922718E1
1.629233333E1,2.835298732E1,-1.111948862E1,-2.554678924E0,3.056241648E1
1.630230333E1,3.007167812E1,-1.324718983E1,1.153200296E-1,3.286041939E1
1.631227433E1,2.872060644E1,-1.394240506E1,2.653734266E0,3.203601409E1
1.632224433E1,2.417386301E1,-1.162828526E1,4.941524048E0,2.727657109E1
1.633221433E1,1.746533845E1,-6.899033854E0,6.024900842E0,1.972141338E1
1.634218433E1,1.057058944E1,-2.349806813E0,5.910809970E0,1.233679973E1
1.635215433E1,4.823373454E0,9.255730149E-1,5.827524569E0,7.621132428E0
1.636212433E1,8.318541348E-1,2.364047707E0,5.394733547E0,5.948432811E0
1.637209433E1,-7.760980099E-1,2.586301836E0,3.992035044E0,4.819505068E0
1.638206433E1,-1.525936174E0,2.922103922E0,2.219565055E0,3.974121485E0
1.639203433E1,-2.532472368E0,3.122852577E0,3.946420330E-1,4.039971144E0
1.640200433E1,-3.579032169E0,3.382944038E0,-1.467122833E0,5.138699353E0
1.641197533E1,-4.668551463E0,3.732352595E0,-2.926865018E0,6.655251121E0
1.642194533E1,-5.755148903E0,3.704875360E0,-3.822676582E0,7.839687276E0
1.643191533E1,-6.431026222E0,3.679923536E0,-4.374669235E0,8.604514304E0
1.644188533E1,-7.427030995E0,2.871608537E0,-5.232790232E0,9.528327167E0
1.645185533E1,-9.358850475E0,1.514546968E0,-6.586675594E0,1.154409936E1
1.646182533E1,-1.156921201E1,8.227231228E-1,-7.325626827E0,1.371817584E1
1.647179533E1,-1.318752250E1,6.653296722E-1,-7.799336665E0,1.533567950E1
1.648176533E1,-1.424849042E1,6.671256445E-1,-8.364487599E0,1.653569438E1
1.649173533E1,-1.500267132E1,4.573925972E-1,-8.893653599E0,1.744667386E1
1.650170533E1,-1.546684668E1,-2.042830769E-1,-9.884401141E0,1.835664631E1
1.651167533E1,-1.541446499E1,-5.629856374E-1,-1.084599447E1,1.885625306E1
1.652164633E1,-1.502370024E1,-6.165937876E-1,-1.132203851E1,1.882233548E1
