"Time (s)","Linear Acceleration x (m/s^2)","Linear Acceleration y (m/s^2)","Linear Acceleration z (m/s^2)","Absolute acceleration (m/s^2)"
3.535416618E-4,4.086428985E-1,-2.102331305E-1,-1.270156158E0,1.350734486E0
1.032454165E-2,1.072037289E-1,-6.122005552E-1,-2.045089402E0,2.137445396E0
2.029554165E-2,2.053568450E-1,-5.019042340E-1,-2.434106998E0,2.493783506E0
3.026654167E-2,5.542134252E-1,1.466671720E-1,-2.646086107E0,2.707477695E0
4.023754166E-2,1.381641510E0,8.595778307E-1,-2.083912575E0,2.643955168E0
5.020854165E-2,2.284980195E0,8.799960154E-1,-1.442529151E0,2.841903910E0
6.017954164E-2,3.095582917E0,8.308210780E-1,-1.366114814E0,3.484130730E0
7.015054167E-2,3.806042131E0,1.265156057E0,-1.753763577E0,4.377472242E0
8.012254167E-2,3.735936646E0,1.598740295E0,-2.414793645E0,4.726988630E0
9.009354166E-2,3.010122060E0,1.492189846E0,-2.981949590E0,4.492158580E0
1.000645416E-1,2.129626692E0,9.609534936E-1,-2.958622708E0,3.769905807E0
1.100355417E-1,1.275302000E0,3.416004780E-1,-3.180566057E0,3.443702444E0
1.200065417E-1,7.673198774E-1,-1.168813093E-1,-3.568228853E0,3.651670602E0
1.299775417E-1,8.875658208E-1,-4.303715904E-1,-3.493257608E0,3.629854200E0
1.399485416E-1,1.349840843E0,-2.756832080E-1,-2.757947436E0,3.082911869E0
1.499195417E-1,1.717760516E0,3.217610215E-1,-1.396747207E0,2.237215704E0
1.598905417E-1,1.886437192E0,4.545795017E-1,-2.516572620E0,3.177802000E0
1.698615417E-1,2.198419184E0,2.087097846E-1,-3.914305667E0,4.494262513E0
1.798325416E-1,2.438853768E0,3.631691024E-2,-3.494974936E0,4.261945145E0
1.898035417E-1,2.500629309E0,-2.590886638E-2,-3.700988715E0,4.466669417E0
1.997745417E-1,2.133195248E0,-3.091327898E-2,-4.157496629E0,4.672927970E0
2.097455417E-1,1.634197957E0,1.644394916E-1,-4.478267278E0,4.769960285E0
2.197165416E-1,1.442100843E0,3.365573276E-1,-4.458235302E0,4.697742829E0
2.296875417E-1,1.568054838E0,2.129273812E-1,-4.259715899E0,4.544151580E0
2.396595417E-1,1.916904109E0,3.746530339E-2,-4.080537915E0,4.508515797E0
2.496305417E-1,1.906891922E0,-3.050906827E-1,-4.202282792E0,4.624770026E0
2.596015416E-1,1.602133288E0,-7.440368494E-1,-4.929360085E0,5.236316716E0
2.695725417E-1,1.226908104E0,-1.054818993E0,-5.882871389E0,6.101321363E0
2.795435417E-1,6.520095688E-1,-1.604752548E0,-6.620559624E0,6.843402440E0
2.895145417E-1,-2.297610766E-1,-2.497692545E0,-7.760733932E0,8.155994689E0
2.994855416E-1,-1.214487449E0,-3.378013081E0,-8.597085160E0,9.316427716E0
3.094565417E-1,-2.101988073E0,-4.140378320E0,-8.706140410E0,9.867014104E0
3.194275417E-1,-2.597229697E0,-4.904455624E0,-8.709530625E0,1.032740097E1
3.293985417E-1,-2.787080019E0,-5.486163535E0,-8.118137972E0,1.018675461E1
3.393695416E-1,-2.885280497E0,-5.987787395E0,-7.878803834E0,1.030795767E1
3.493405417E-1,-2.767919278E0,-6.526439332E0,-6.912601148E0,9.901507063E0
3.593115417E-1,-2.398647729E0,-7.086050030E0,-5.324322546E0,9.182266960E0
3.692825417E-1,-1.867699497E0,-7.710570669E0,-3.587296624E0,8.706887992E0
3.792535417E-1,-1.798988281E0,-8.287699040E0,-2.073739589E0,8.730561843E0
3.892255417E-1,-1.786369405E0,-8.854004799E0,7.762637785E-1,9.065710236E0
3.991965417E-1,-1.230978643E0,-9.470349861E0,1.616302261E0,9.685828199E0
4.091675417E-1,9.312749273E-1,-9.705900850E0,2.157597140E0,9.986341158E0
4.191385416E-1,2.493810579E0,-9.963936138E0,3.208304371E0,1.076068453E1
4.291095417E-1,2.426468196E0,-9.921527452E0,4.070874807E0,1.099529338E1
4.390805417E-1,2.046193357E0,-9.054044479E0,4.380802964E0,1.026421275E1
4.490515417E-1,1.991719526E0,-8.023906583E0,3.788213385E0,9.093986155E0
4.590225416E-1,3.076320142E0,-6.739081516E0,2.865557839E0,7.942945739E0
4.689935417E-1,4.557818647E0,-5.494018099E0,2.068247885E0,7.432065326E0
4.789645417E-1,5.140048714E0,-4.867472570E0,1.933589432E0,7.338334831E0
4.889355417E-1,5.201045698E0,-4.726552041E0,2.067127558E0,7.325584406E0
4.989065416E-1,5.180307963E0,-4.691335139E0,2.224548637E0,7.334359727E0
5.088775417E-1,5.096650094E0,-4.913354502E0,2.572160929E0,7.532124965E0
5.188485417E-1,5.316176205E0,-5.310794427E0,2.974475094E0,8.081693447E0
5.288195417E-1,5.827392422E0,-5.842319779E0,3.615175563E0,9.008923198E0
5.387915417E-1,6.062545216E0,-5.777225066E0,4.593649800E0,9.551565445E0
5.487625417E-1,6.166602851E0,-5.085283107E0,5.386260931E0,9.638407639E0
5.587335417E-1,5.853939366E0,-4.201979614E0,5.752603025E0,9.220503259E0
5.687045417E-1,5.408623608E0,-3.319279554E0,5.648611465E0,8.495742320E0
5.786755416E-1,5.233255670E0,-2.944924728E0,4.841222665E0,7.713428774E0
5.886465417E-1,5.281360713E0,-2.960399092E0,3.623722146E0,7.056068024E0
5.986175417E-1,5.702543258E0,-2.904849374E0,2.581210957E0,6.900710072E0
6.085885417E-1,6.433203140E0,-2.624673019E0,1.798974833E0,7.177138813E0
6.185595416E-1,7.228150819E0,-2.121385041E0,1.459398369E0,7.673088189E0
6.285305417E-1,8.045418490E0,-1.440064550E0,1.491631730E0,8.308279593E0
6.385015417E-1,8.757214669E0,-8.124150664E-1,1.987764469E0,9.016653181E0
6.484725417E-1,9.283519626E0,8.170899153E-2,2.736928158E0,9.678904316E0
6.584435416E-1,9.632331768E0,1.264945119E0,3.165213023E0,1.021765506E1
6.684145417E-1,9.707118825E0,2.475823374E0,3.139571813E0,1.049832217E1
6.783855417E-1,9.441826558E0,3.561089403E0,2.736984876E0,1.045564597E1
6.883565417E-1,9.084714879E0,4.307416314E0,2.051575719E0,1.026132753E1
6.983285416E-1,8.812159785E0,4.755933423E0,1.412192042E0,1.011273203E1
7.082995417E-1,8.688798738E0,5.151029200E0,1.094635315E0,1.016004684E1
7.182705417E-1,8.733389019E0,5.501480316E0,1.215060476E0,1.039301407E1
7.282415417E-1,8.805155405E0,5.738432298E0,1.552328459E0,1.062403363E1
7.382125416E-1,8.783086259E0,5.897006448E0,1.855167452E0,1.074052771E1
7.481835417E-1,8.560636541E0,5.959007399E0,2.046069396E0,1.062923643E1
7.581545417E-1,8.125699006E0,6.059977704E0,1.982198797E0,1.032857329E1
7.681255417E-1,7.580408140E0,6.175499389E0,1.633575228E0,9.913019131E0
7.780965416E-1,7.054706030E0,6.061392730E0,1.053333800E0,9.360495238E0
7.880675417E-1,6.655728287E0,5.940147790E0,4.433057776E-1,8.931998366E0
7.980385417E-1,6.413884524E0,5.905575542E0,-2.991815597E-2,8.718637065E0
8.080095417E-1,6.216225246E0,5.907478226E0,-3.259451428E-1,8.581724509E0
8.179805416E-1,6.041553712E0,5.904070469E0,-4.653142588E-1,8.460197203E0
8.279515417E-1,5.808812310E0,5.721373047E0,-5.316800103E-1,8.170623821E0
8.379225417E-1,5.406222741E0,5.400036387E0,-4.945469749E-1,7.657167493E0
8.478935416E-1,4.929232616E0,4.945070384E0,-5.226951787E-1,7.001733038E0
8.578655416E-1,4.535606829E0,4.282890753E0,-7.477815525E-1,6.282838511E0
8.678365417E-1,4.358606349E0,3.540755711E0,-8.850906944E-1,5.684873424E0
8.778075417E-1,4.429200368E0,2.729370924E0,-9.804672602E-1,5.294204150E0
8.877785417E-1,4.357852643E0,2.087553052E0,-1.084783634E0,4.952323993E0
8.977495416E-1,4.056514045E0,1.946308295E0,-1.209065910E0,4.658890700E0
9.077205417E-1,3.691716785E0,2.177954514E0,-1.363360044E0,4.497889427E0
9.176911667E-1,3.508641633E0,2.502855052E0,-1.343677001E0,4.514456490E0
9.276621667E-1,3.622760571E0,2.506980847E0,-1.349076612E0,4.607532401E0
9.376331667E-1,3.779356608E0,2.255511398E0,-1.274890502E0,4.582162571E0
9.476041667E-1,4.140784117E0,1.954310794E0,-1.036871549E0,4.694733900E0
9.575751667E-1,4.482094281E0,1.704775019E0,-6.764899604E-1,4.842836532E0
9.675461666E-1,4.590581766E0,1.424397520E0,-3.212976296E-1,4.817217185E0
9.775171667E-1,4.492087757E0,9.128246230E-1,-1.478797384E-1,4.586280587E0
9.874881667E-1,4.284678832E0,4.146564674E-1,-1.635768811E-1,4.307803393E0
9.974591667E-1,3.864593809E0,2.215340441E-1,-2.771075897E-1,3.880844143E0
1.007430167E0,3.297963529E0,3.193293107E-1,-3.773350056E-1,3.334803796E0
1.017401167E0,2.813907629E0,4.531481034E-1,-4.605255353E-1,2.887127139E0
1.027373167E0,2.457090064E0,5.034312344E-1,-6.245830576E-1,2.584731821E0
1.037344167E0,2.309303443E0,6.245703399E-1,-7.220339231E-1,2.498860438E0
1.047315167E0,2.279849263E0,8.498676521E-1,-5.594664176E-1,2.496595755E0
1.057286167E0,2.300403396E0,9.511367494E-1,-3.679722977E-1,2.516330764E0
1.067257167E0,2.462241461E0,7.447961104E-1,-2.441760711E-1,2.583984561E0
1.077228167E0,2.748484302E0,4.729888755E-1,-5.462468863E-3,2.788891227E0
1.087199167E0,2.893553138E0,2.622821206E-1,2.894058922E-1,2.919794075E0
1.097170167E0,2.948427503E0,8.971967697E-2,4.634163988E-1,2.985972056E0
1.107141167E0,2.755498622E0,4.370384395E-2,5.024711215E-1,2.801278264E0
1.117112167E0,2.383159039E0,3.195503354E-3,5.343188587E-1,2.442325502E0
1.127083167E0,1.822383576E0,-3.464872885E-1,5.450233564E-1,1.933438853E0
1.137054167E0,1.203579175E0,-1.143144109E0,3.719261849E-1,1.701090936E0
1.147025167E0,5.656099409E-1,-1.977137740E0,2.652824731E-1,2.073490544E0
1.156996167E0,-7.813634276E-2,-2.741826078E0,2.126013990E-1,2.751166095E0
1.166967167E0,-6.010943538E-1,-3.226638608E0,2.882433195E-1,3.294783049E0
1.176938167E0,-1.098119963E0,-3.342965455E0,4.356631744E-1,3.545572999E0
1.186909167E0,-1.523869184E0,-3.333680661E0,5.744411369E-1,3.710200353E0
1.196881167E0,-1.682178454E0,-3.232551312E0,6.188557099E-1,3.696227094E0
1.206852167E0,-1.618185942E0,-2.942703078E0,5.904987605E-1,3.409797052E0
1.216823167E0,-1.332730136E0,-2.635559658E0,7.123197976E-1,3.038049344E0
1.226794167E0,-8.976996303E-1,-2.399299693E0,9.129728499E-1,2.719563029E0
1.236765167E0,-5.065530628E-1,-2.211655526E0,1.160871112E0,2.548654137E0
1.246736167E0,-1.915395820E-1,-2.002836545E0,1.347725320E0,2.421653397E0
1.256707167E0,7.085012734E-2,-1.849129910E0,1.586854514E0,2.437705563E0
1.266678167E0,2.014956361E-1,-1.658755678E0,1.860551276E0,2.500744278E0
1.276649167E0,2.722001678E-1,-1.528488776E0,2.007778027E0,2.538019597E0
1.286620167E0,3.106678301E-1,-1.650133081E0,1.927694854E0,2.556454798E0
1.296591167E0,2.339751649E-1,-1.941572635E0,1.737803602E0,2.616182339E0
1.306562167E0,1.967237234E-2,-2.280276403E0,1.569979449E0,2.768552500E0
1.316533167E0,-2.784479177E-1,-2.761735555E0,1.479806613E0,3.145559430E0
1.326504167E0,-5.643896270E-1,-3.205520512E0,1.595151128E0,3.624693714E0
1.336475167E0,-1.001013499E0,-3.393365823E0,1.851519959E0,3.993129824E0
1.346446167E0,-1.400823301E0,-3.618202667E0,1.927888396E0,4.332487753E0
1.356417167E0,-1.716144345E0,-3.750436279E0,1.965302390E0,4.568734747E0
1.366389167E0,-1.982890815E0,-3.827066379E0,1.923720793E0,4.720063002E0
1.376360167E0,-2.229328735E0,-3.805752693E0,2.008618856E0,4.846463647E0
1.386331167E0,-2.487627733E0,-3.765907135E0,2.000986486E0,4.937033036E0
1.396302167E0,-2.780368584E0,-3.566537254E0,2.041571425E0,4.961718586E0
1.406273167E0,-3.078095942E0,-3.446441292E0,1.952729415E0,5.016551043E0
1.416244167E0,-3.320962383E0,-3.440094139E0,1.706631218E0,5.076970450E0
1.426215167E0,-3.546117607E0,-3.401771488E0,1.441468174E0,5.121018437E0
1.436186167E0,-3.784916725E0,-3.456142115E0,1.231478580E0,5.271342564E0
1.446157167E0,-3.932003435E0,-3.719044625E0,1.046594007E0,5.512467954E0
1.456128167E0,-4.048606855E0,-3.932089681E0,1.023784311E0,5.735911527E0
1.466099167E0,-4.146205071E0,-3.995881927E0,1.099268064E0,5.862292993E0
1.476070167E0,-4.255726343E0,-4.049227830E0,1.183681101E0,5.992374627E0
1.486041167E0,-4.325117006E0,-4.089880012E0,1.296049967E0,6.092085123E0
1.496012167E0,-4.322400389E0,-4.196549013E0,1.361361904E0,6.176364220E0
1.505983167E0,-4.247161927E0,-4.455644401E0,1.252753090E0,6.281762632E0
1.515954167E0,-3.977401217E0,-4.580976252E0,1.081684025E0,6.162394356E0
1.525925167E0,-3.666118260E0,-4.461172358E0,9.557928872E-1,5.852864423E0
1.535896167E0,-3.240026393E0,-4.320112081E0,6.601357368E-1,5.440305011E0
1.545868167E0,-2.769324948E0,-4.122157519E0,3.003939798E-1,4.975095961E0
1.555839167E0,-2.407725531E0,-4.018383182E0,1.085749009E-1,4.685758652E0
1.565810167E0,-2.227148309E0,-4.433731668E0,-7.639942735E-2,4.962257849E0
1.575781167E0,-1.977855778E0,-5.063403411E0,-1.710939154E-1,5.438680052E0
1.585752167E0,-1.580326974E0,-5.892702312E0,-1.701580685E-1,6.103304651E0
1.595723167E0,-1.061695318E0,-6.666916350E0,3.903454989E-2,6.751036532E0
1.605694167E0,-5.794742739E-1,-7.210879313E0,3.397492495E-1,7.242099175E0
1.615665167E0,-2.500696260E-1,-7.316123933E0,6.125037333E-1,7.345976112E0
1.625636167E0,2.760353565E-2,-7.027312410E0,7.437766483E-1,7.066617675E0
1.635607167E0,1.953613222E-1,-6.529443047E0,7.296380809E-1,6.572987470E0
1.645578167E0,2.126158708E-1,-5.956185533E0,8.536803290E-1,6.020807397E0
1.655549167E0,3.504815215E-1,-5.516649747E0,1.275765684E0,5.673080276E0
1.665520167E0,4.610763431E-1,-4.956874743E0,1.890376461E0,5.325102983E0
1.675491167E0,4.856083363E-1,-4.295266385E0,2.353075114E0,4.921594383E0
1.685462167E0,6.217326862E-1,-3.671439519E0,2.668956322E0,4.581413267E0
1.695433167E0,9.564208782E-1,-3.066868703E0,2.830286557E0,4.281465465E0
1.705404167E0,1.420661734E0,-2.424399159E0,2.733299083E0,3.920065678E0
1.715375167E0,2.066354556E0,-1.757680042E0,2.482971303E0,3.677554455E0
1.725346167E0,2.780660945E0,-1.171088537E0,2.127264124E0,3.691717257E0
1.735318167E0,3.306069524E0,-6.340802515E-1,1.581047644E0,3.719121552E0
1.745289167E0,3.617647181E0,-4.119047678E-1,1.038714299E0,3.786286315E0
1.755260167E0,3.834310495E0,-4.326793402E-1,4.786317310E-1,3.888217678E0
1.765231167E0,3.893556823E0,-4.187366545E-1,1.694017312E-1,3.919671168E0
1.775202167E0,3.794196841E0,-3.935117662E-1,1.716178259E-1,3.818407241E0
1.785173167E0,3.443110718E0,-1.913840461E-1,4.806829342E-1,3.481766125E0
1.795144167E0,2.931406258E0,1.651715630E-1,8.521004114E-1,3.057204508E0
1.805115167E0,2.387681276E0,4.744612044E-1,1.089360542E0,2.666991132E0
1.815086167E0,1.901111072E0,6.585777462E-1,1.248656238E0,2.367929551E0
1.825057167E0,1.723787826E0,6.915507799E-1,1.515335172E0,2.397066464E0
1.835028167E0,1.509851069E0,8.890007275E-1,1.557481026E0,2.344295137E0
1.844999167E0,1.253724312E0,1.069149933E0,1.338771771E0,2.123020510E0
1.854970167E0,1.028587798E0,1.336620873E0,1.037573507E0,1.980178527E0
1.864941167E0,1.106472126E0,1.385731053E0,7.079340935E-1,1.909372095E0
1.874912167E0,1.163031659E0,1.494498035E0,3.810408247E-1,1.931672624E0
1.884883167E0,1.074056332E0,1.513611413E0,2.690540734E-1,1.875368393E0
1.894854167E0,1.015368413E0,1.514808338E0,3.655845872E-1,1.859911129E0
1.904825167E0,9.420098305E-1,1.545539550E0,4.708783230E-1,1.870241005E0
1.914796542E0,9.587533325E-1,1.683529746E0,6.287546074E-1,2.036863450E0
1.924767542E0,1.055648128E0,1.989739074E0,7.858377171E-1,2.385580741E0
1.934738542E0,1.172709385E0,2.352941213E0,8.101507321E-1,2.750985980E0
1.944709542E0,1.330325176E0,2.609715257E0,5.606456548E-1,2.982398757E0
1.954680542E0,1.580643309E0,2.631482686E0,1.881584296E-1,3.075473621E0
1.964651542E0,1.958494477E0,2.567569696E0,-1.261478305E-2,3.229283805E0
1.974622542E0,2.420989355E0,2.578983461E0,-6.701493859E-2,3.537914096E0
1.984593542E0,2.808324122E0,2.634475876E0,8.655048609E-2,3.851576107E0
1.994564542E0,2.955659924E0,2.848601498E0,4.717311394E-1,4.131947041E0
2.004535542E0,3.006758156E0,3.014220373E0,7.920895600E-1,4.330534025E0
2.014506542E0,3.031555613E0,3.080108553E0,1.079051901E0,4.454408057E0
2.024477542E0,3.007794283E0,3.187897881E0,1.269003964E0,4.562881809E0
2.034448542E0,2.941263494E0,3.363876268E0,1.286951115E0,4.650047060E0
2.044419542E0,2.944163128E0,3.569410576E0,1.087461366E0,4.753036988E0
2.054390542E0,3.049300743E0,3.916618826E0,8.221500957E-1,5.031308859E0
2.064361542E0,3.278190000E0,4.244388592E0,5.017741334E-1,5.386384825E0
2.074332542E0,3.624642790E0,4.471917202E0,1.898664013E-1,5.759524986E0
2.084303542E0,3.982843806E0,4.640290700E0,4.410262406E-3,6.115174733E0
2.094274542E0,4.351739963E0,4.769636958E0,-1.989246154E-1,6.459616739E0
2.104246542E0,4.568908476E0,4.803718624E0,-2.742963946E-1,6.635199755E0
2.114217542E0,4.682113495E0,4.812254389E0,-2.365037933E-1,6.718326661E0
2.124188542E0,4.706088833E0,4.693791554E0,-1.826798809E-1,6.649234783E0
2.134159542E0,4.655889317E0,4.506231002E0,-2.123428059E-1,6.482940124E0
2.144130542E0,4.647800279E0,4.339039811E0,-2.966722271E-1,6.365322327E0
2.154101542E0,4.633540674E0,4.289834906E0,-4.351509583E-1,6.329434340E0
2.164072542E0,4.664132137E0,4.337917730E0,-5.679388869E-1,6.394858357E0
2.174043542E0,4.777592095E0,4.349649584E0,-6.765903863E-1,6.496353768E0
2.184014542E0,5.013998532E0,4.467880284E0,-6.698906466E-1,6.749139870E0
2.193985542E0,5.304964753E0,4.654711103E0,-6.250427949E-1,7.085172192E0
2.203956542E0,5.504538994E0,4.739614429E0,-6.707063332E-1,7.294774942E0
2.213927542E0,5.628306423E0,4.634900152E0,-7.413632101E-1,7.328693746E0
2.223898542E0,5.823266627E0,4.340627915E0,-9.110248500E-1,7.319935189E0
2.233869542E0,6.148464203E0,3.739336510E0,-1.097944547E0,7.279542006E0
2.243840542E0,6.423271644E0,3.098479920E0,-1.148040275E0,7.223364375E0
2.253811542E0,6.398620952E0,2.849940510E0,-1.046287905E0,7.082318080E0
2.263782542E0,6.077871938E0,3.101491236E0,-8.849047530E-1,6.880612734E0
2.273753542E0,5.743814076E0,3.520208595E0,-7.494659892E-1,6.778271753E0
2.283724542E0,5.636013638E0,3.664181077E0,-7.031513634E-1,6.759089772E0
2.293696542E0,5.646133999E0,3.560940299E0,-5.870964119E-1,6.701030305E0
2.303667542E0,5.757001886E0,3.317568659E0,-4.614660600E-1,6.660501741E0
2.313638542E0,6.027006424E0,2.625592786E0,-5.786407533E-1,6.599497635E0
2.323609542E0,6.315014539E0,1.789318156E0,-7.082741091E-1,6.601721011E0
2.333580542E0,6.510953566E0,1.138217245E0,-8.077805632E-1,6.658871096E0
2.343551542E0,6.620753751E0,6.016545171E-1,-1.022180712E0,6.726159514E0
2.353522542E0,6.709007531E0,2.306457603E-1,-1.235242433E0,6.825672377E0
2.363493542E0,6.750352609E0,2.499275386E-2,-1.411187198E0,6.896327594E0
2.373464542E0,6.873736460E0,-2.577680701E-1,-1.606767206E0,7.063738257E0
2.383435542E0,6.880583550E0,-6.353350639E-1,-1.569046818E0,7.085759560E0
2.393406542E0,6.687554097E0,-9.764394057E-1,-1.370122203E0,6.895944356E0
2.403377542E0,6.420183145E0,-1.325585423E0,-1.036593221E0,6.637051592E0
2.413348542E0,6.044857973E0,-1.834239390E0,-7.373596215E-1,6.359908904E0
2.423319542E0,5.648458267E0,-2.337604551E0,-5.232755148E-1,6.135413034E0
2.433290542E0,5.067760756E0,-2.801724955E0,-4.357310021E-1,5.807040839E0
2.443261542E0,4.588676743E0,-3.395445970E0,-3.043580997E-1,5.716436078E0
2.453232542E0,4.286923578E0,-4.133897559E0,-3.163799751E-1,5.963800724E0
2.463203542E0,3.879611798E0,-4.843811227E0,-2.019555196E-1,6.209241575E0
2.473174542E0,3.402133430E0,-5.457692857E0,-7.379127681E-2,6.431669173E0
2.483145542E0,2.975028825E0,-5.911731491E0,7.309545815E-2,6.618512573E0
2.493117542E0,2.461082543E0,-6.185191734E0,3.855016655E-1,6.667993372E0
2.503088542E0,1.941669699E0,-6.382669748E0,7.607502383E-1,6.714707384E0
2.513059542E0,1.480082894E0,-6.670120624E0,9.544763866E-1,6.898708552E0
2.523030542E0,9.405059266E-1,-6.707620572E0,1.206277081E0,6.879813190E0
2.533001542E0,2.508894056E-1,-6.457847400E0,1.537780879E0,6.643155016E0
2.542972542E0,-4.850084120E-1,-6.278674094E0,1.805492139E0,6.551090246E0
2.552943542E0,-9.783181161E-1,-6.283129088E0,1.973286763E0,6.657978531E0
2.562914542E0,-1.509841129E0,-6.258366714E0,2.053497114E0,6.757486556E0
2.572885542E0,-1.957341406E0,-6.290863785E0,1.986567544E0,6.881322776E0
2.582856542E0,-2.201362088E0,-6.206513021E0,1.873369835E0,6.846627890E0
2.592827542E0,-2.149197907E0,-6.070571104E0,1.613461976E0,6.638836097E0
2.602798542E0,-2.071806500E0,-5.879039124E0,1.299120340E0,6.367353991E0
2.612769542E0,-2.231969923E0,-5.767653174E0,1.072985707E0,6.276847234E0
2.622740542E0,-2.471602269E0,-5.621941144E0,8.500711352E-1,6.199811363E0
2.632711542E0,-2.650304874E0,-5.491435384E0,7.498662311E-1,6.143474413E0
2.642682542E0,-2.792034949E0,-5.546351849E0,7.374599013E-1,6.253105236E0
2.652653542E0,-3.047365900E0,-5.710194340E0,7.383065781E-1,6.514434352E0
2.662624542E0,-3.412786472E0,-5.859294831E0,6.815344995E-1,6.814905479E0
2.672595542E0,-3.849537229E0,-5.962682959E0,5.763819739E-1,7.120726166E0
2.682566542E0,-4.318177530E0,-6.001067006E0,5.439673492E-1,7.413188442E0
2.692537542E0,-4.677182538E0,-6.023642521E0,5.131753269E-1,7.643536788E0
2.702509542E0,-5.162598501E0,-6.020745226E0,5.816386208E-1,7.952364418E0
2.712480542E0,-5.581245693E0,-5.917338386E0,7.008636403E-1,8.164337506E0
2.722451542E0,-5.830070447E0,-5.887362635E0,7.963194358E-1,8.323754252E0
2.732422542E0,-6.180894030E0,-6.012840375E0,8.844682583E-1,8.668332278E0
2.742393542E0,-6.711944588E0,-5.977254220E0,1.045904474E0,9.048297317E0
2.752364542E0,-7.014349717E0,-5.725784186E0,1.196816578E0,9.133349683E0
2.762335542E0,-6.873468073E0,-5.499830232E0,1.277630800E0,8.895225483E0
2.772306542E0,-6.684816431E0,-5.410517521E0,1.156366417E0,8.677422074E0
2.782277542E0,-6.645885669E0,-5.584748760E0,1.013172930E0,8.739778854E0
2.792248542E0,-6.562685053E0,-5.811305562E0,7.593571392E-1,8.798677782E0
2.802219542E0,-6.593004620E0,-6.060375314E0,2.659610425E-1,8.959162581E0
2.812190542E0,-6.435601083E0,-6.140659339E0,-5.966614334E-1,8.915192835E0
2.822161542E0,-5.996395081E0,-5.886981981E0,-1.566897382E0,8.548010191E0
2.832132542E0,-5.666893954E0,-5.638237919E0,-2.193839060E0,8.289532178E0
2.842103542E0,-5.356119704E0,-5.639778661E0,-2.536541446E0,8.181024638E0
2.852074542E0,-5.196274370E0,-5.796461236E0,-2.648206600E0,8.222726335E0
2.862045542E0,-4.722064596E0,-6.011467448E0,-2.299210856E0,7.982606435E0
2.872016542E0,-3.820720396E0,-6.109990693E0,-1.836984658E0,7.436693032E0
2.881987542E0,-2.841593610E0,-6.158874001E0,-1.324722666E0,6.910953143E0
2.891958542E0,-1.918780773E0,-6.175953133E0,-1.134879362E0,6.565978063E0
2.901929542E0,-1.210886441E0,-6.179034616E0,-1.054598845E0,6.384269220E0
2.911901542E0,-6.108188581E-1,-6.208656026E0,-1.414668923E0,6.397014732E0
2.921873750E0,-1.898263478E-1,-6.186894443E0,-1.983696854E0,6.499903853E0
2.931844750E0,3.822547066E-1,-6.343959426E0,-2.606679675E0,6.869258969E0
2.941815750E0,1.210035671E0,-6.654367055E0,-2.994774580E0,7.396854873E0
2.951786750E0,2.012885277E0,-6.803999643E0,-2.972887283E0,7.693125312E0
2.961757750E0,2.747711885E0,-6.554408319E0,-2.724438797E0,7.611357026E0
2.971728750E0,3.069101170E0,-6.309531605E0,-2.341716606E0,7.396837684E0
2.981699750E0,3.279328453E0,-6.139330852E0,-1.572527666E0,7.135700503E0
2.991670750E0,3.482508087E0,-5.871076385E0,-4.322162408E-1,6.839898492E0
3.001641750E0,3.482029785E0,-5.695589164E0,3.885854870E-1,6.686947438E0
3.011612750E0,3.208750806E0,-5.214720581E0,7.840274191E-1,6.172851162E0
3.021583750E0,3.118951607E0,-4.526357118E0,1.016220645E0,5.590033299E0
3.031554750E0,3.148282410E0,-4.014348019E0,1.026783348E0,5.203936605E0
3.041525750E0,3.157170762E0,-3.615919037E0,1.440158105E0,5.011651731E0
3.051496750E0,3.068842138E0,-3.444373716E0,1.774742802E0,4.942794187E0
3.061467750E0,3.394381776E0,-3.366660127E0,2.071180848E0,5.210184081E0
3.071438750E0,3.984154167E0,-3.177631924E0,2.350197700E0,5.611974545E0
3.081409750E0,4.335869451E0,-2.910162446E0,2.577771918E0,5.823548524E0
3.091380750E0,4.566070238E0,-2.708048759E0,2.751817800E0,5.979550711E0
3.101351750E0,5.042283268E0,-2.350277222E0,2.886245288E0,6.267282939E0
3.111323750E0,5.618084321E0,-1.666343025E0,2.835347907E0,6.509897716E0
3.121294750E0,5.956887199E0,-7.566215193E-1,2.705130706E0,6.585948175E0
3.131265750E0,6.278869391E0,2.293237048E-1,2.364596761E0,6.713278486E0
3.141236750E0,6.562914264E0,1.147749960E0,1.894174228E0,6.926548174E0
3.151207750E0,6.524633127E0,1.919497057E0,1.417059850E0,6.947183963E0
3.161178750E0,6.162505122E0,2.464025447E0,1.059999918E0,6.720973933E0
3.171149750E0,5.488441025E0,2.904548827E0,9.479038239E-1,6.281553186E0
3.181120750E0,4.684003315E0,3.233101535E0,1.013420706E0,5.780990756E0
3.191091750E0,4.083993035E0,3.410289711E0,9.682050642E-1,5.408002965E0
3.201062750E0,3.882581599E0,3.479259374E0,8.240711984E-1,5.278141624E0
3.211033750E0,3.977726322E0,3.502540648E0,6.125490493E-1,5.335289498E0
3.221004750E0,4.356150518E0,3.792966002E0,2.899999693E-1,5.783315521E0
3.230975750E0,4.755118321E0,4.441363161E0,-1.512917349E-1,6.508436538E0
3.240946750E0,4.939048921E0,4.901893959E0,-5.732244775E-1,6.982217050E0
3.250917750E0,4.966509785E0,5.123292933E0,-8.350755121E-1,7.184128411E0
3.260888750E0,4.778646932E0,5.111451736E0,-1.015525703E0,7.070622166E0
3.270859750E0,4.631039236E0,4.925302702E0,-1.264276782E0,6.877755949E0
3.280830750E0,4.652333626E0,4.845187662E0,-1.524481095E0,6.887967352E0
3.290801750E0,4.699085038E0,4.984520963E0,-1.685544112E0,7.054637367E0
3.300772750E0,4.683003441E0,5.192071976E0,-1.928737851E0,7.253148443E0
3.310743750E0,4.780848409E0,5.383143781E0,-2.345175526E0,7.571961220E0
3.320714750E0,4.983684812E0,5.541624375E0,-2.587044725E0,7.889202458E0
3.330686750E0,5.231037236E0,5.489686482E0,-2.481958272E0,7.978754609E0
3.340657750E0,5.563658438E0,5.328030850E0,-2.222055676E0,8.017464648E0
3.350628750E0,5.887794160E0,5.149916475E0,-1.825111302E0,8.032358995E0
3.360599750E0,6.073764853E0,5.056763313E0,-1.421497594E0,8.030076594E0
3.370570750E0,6.180020456E0,5.168249250E0,-1.113061061E0,8.132795219E0
3.380541750E0,6.224488531E0,5.577232164E0,-8.616749346E-1,8.401920006E0
3.390512750E0,5.962043273E0,5.979408919E0,-8.251766145E-1,8.484115008E0
3.400483750E0,5.617221272E0,6.322615920E0,-1.058386964E0,8.523428292E0
3.410454750E0,5.260618300E0,6.416945542E0,-1.347225676E0,8.406325714E0
3.420425750E0,4.749888864E0,6.150565107E0,-1.433911525E0,7.902341275E0
3.430396750E0,4.384059863E0,5.718417279E0,-1.419469341E0,7.344056799E0
3.440367750E0,4.292249222E0,5.303982421E0,-1.295227557E0,6.945016006E0
3.450338750E0,4.444316297E0,4.765360889E0,-1.221811671E0,6.629738721E0
3.460309750E0,4.651806499E0,4.092694861E0,-1.209876481E0,6.312943531E0
3.470280750E0,4.831776488E0,3.604935334E0,-1.339382806E0,6.175400318E0
3.480251750E0,4.861913037E0,3.323055686E0,-1.594022615E0,6.100967593E0
3.490222750E0,4.863845542E0,3.251222641E0,-1.884487292E0,6.146440797E0
3.500193750E0,4.956016372E0,3.342608190E0,-2.084995187E0,6.331060948E0
3.510164750E0,4.869423786E0,3.341204858E0,-2.045799254E0,6.249818597E0
3.520135750E0,4.786210890E0,3.145411427E0,-1.872689950E0,6.025644810E0
3.530106750E0,4.823797962E0,2.833242617E0,-1.602316014E0,5.819253140E0
3.540077750E0,4.910120407E0,2.467511557E0,-1.404048187E0,5.671793984E0
3.550049750E0,5.227943475E0,1.952790518E0,-1.352018931E0,5.742189388E0
3.560020750E0,5.650512979E0,1.255473799E0,-1.295077575E0,5.931419502E0
3.569991750E0,6.055373606E0,6.790044093E-1,-1.028389578E0,6.179496874E0
3.579962750E0,6.321091551E0,4.433703893E-1,-5.219667618E-1,6.358083437E0
3.589933750E0,6.265956400E0,3.753339422E-1,-3.280144724E-1,6.285752037E0
3.599904750E0,6.183271508E0,3.171962464E-1,-5.907257786E-1,6.219519029E0
3.609875750E0,6.470612456E0,1.869489330E-1,-1.069710681E0,6.561101768E0
3.619846750E0,6.779268844E0,-3.022893548E-2,-1.400784709E0,6.922542716E0
3.629817750E0,6.974193964E0,-4.611950415E-1,-1.382719737E0,7.124885696E0
3.639788750E0,7.173582264E0,-1.095017431E0,-1.236281776E0,7.361232118E0
3.649759750E0,7.223164313E0,-1.643111452E0,-9.589480448E-1,7.469504622E0
3.659730750E0,7.182277073E0,-2.068875291E0,-6.520809048E-1,7.502703408E0
3.669701750E0,7.102491231E0,-2.560277633E0,-4.349296412E-1,7.562378398E0
3.679672750E0,7.005640875E0,-3.126734251E0,-2.524982670E-1,7.675886041E0
3.689643750E0,6.801991709E0,-3.594051912E0,1.648409030E-1,7.694899147E0
3.699614750E0,6.447320073E0,-3.848326271E0,8.165721443E-1,7.552770437E0
3.709585750E0,6.006477435E0,-4.000545666E0,1.404165277E0,7.352130094E0
3.719556750E0,5.614349704E0,-4.100820152E0,2.046594768E0,7.247496027E0
3.729527750E0,5.192595302E0,-4.265109955E0,2.663485667E0,7.228303037E0
3.739498750E0,4.724578899E0,-4.438762320E0,3.093930786E0,7.183081818E0
3.749469750E0,4.231529396E0,-4.577436056E0,3.349492117E0,7.076571155E0
3.759440750E0,3.686902188E0,-4.816619335E0,3.544348532E0,7.025345264E0
3.769411750E0,3.034987344E0,-5.088064628E0,3.621357532E0,6.943614348E0
3.779383750E0,2.390555182E0,-5.422144125E0,3.511463499E0,6.888016906E0
3.789354750E0,1.917769790E0,-5.795287700E0,3.344346567E0,6.960449300E0
3.799325750E0,1.392648894E0,-6.038902000E0,3.261826859E0,7.003379382E0
3.809296750E0,9.027621496E-1,-6.204397498E0,3.125065748E0,7.005395331E0
3.819267750E0,4.069387275E-1,-6.234177368E0,2.965390860E0,6.915497779E0
3.829238750E0,1.917454040E-1,-6.561802123E0,2.491723415E0,7.021588067E0
3.839209750E0,1.473375553E-1,-6.723696907E0,2.411524467E0,7.144596469E0
3.849180750E0,-1.167671424E-1,-6.828898841E0,2.328126799E0,7.215792981E0
3.859151750E0,-2.906317610E-1,-6.931483562E0,2.264851155E0,7.297909423E0
3.869122750E0,-3.789434284E-1,-7.204531576E0,2.041379929E0,7.497740017E0
3.879093750E0,-4.183261800E-1,-7.371786502E0,1.988315277E0,7.646674484E0
3.889064750E0,-6.048336482E-1,-7.473364332E0,1.869505410E0,7.727357159E0
3.899035750E0,-7.471326578E-1,-7.610812492E0,1.726020293E0,7.839758928E0
3.909006750E0,-1.061165560E0,-7.751042756E0,1.639731762E0,7.993338252E0
3.918977125E0,-1.421697861E0,-7.909185382E0,1.576761342E0,8.189176670E0
3.928948125E0,-1.721256566E0,-8.106712512E0,1.568311531E0,8.434519132E0
3.938919125E0,-2.140399602E0,-8.246197842E0,1.608255908E0,8.669923666E0
3.948890125E0,-2.627314791E0,-8.192965375E0,1.777523445E0,8.785616327E0
3.958861125E0,-3.015592715E0,-8.122864861E0,1.955535494E0,8.882502577E0
3.968832125E0,-3.409707329E0,-8.125470965E0,1.997323205E0,9.035412689E0
3.978803125E0,-3.832035343E0,-8.079256911E0,2.018255652E0,9.166910220E0
3.988774125E0,-4.316708125E0,-7.952967578E0,2.015076521E0,9.270609242E0
3.998745125E0,-4.800648835E0,-7.852842196E0,2.082651038E0,9.436672885E0
4.008716125E0,-5.302130608E0,-7.697328479E0,2.171577541E0,9.595686725E0
4.018688125E0,-5.720320548E0,-7.443327770E0,2.229697402E0,9.648665502E0
4.028659125E0,-6.053067464E0,-7.153162032E0,2.215166194E0,9.628827242E0
4.038630125E0,-6.353968690E0,-6.842734523E0,2.213898810E0,9.596732871E0
4.048601125E0,-6.489812958E0,-6.619042856E0,2.082024802E0,9.500748804E0
4.058572125E0,-6.578010605E0,-6.437831211E0,1.904585195E0,9.399113734E0
4.068543125E0,-6.717976575E0,-6.374660232E0,1.640888633E0,9.405318594E0
4.078514125E0,-6.931509874E0,-6.377717156E0,1.301865023E0,9.508730610E0
4.088485125E0,-7.116467246E0,-6.498036482E0,8.807709177E-1,9.677000651E0
4.098456125E0,-7.209730335E0,-6.724790336E0,4.872739157E-1,9.871193061E0
4.108427125E0,-7.181335087E0,-7.077856911E0,1.599456140E-1,1.008430536E1
4.118398125E0,-7.114269862E0,-7.374125388E0,-9.856914550E-2,1.024696427E1
4.128369125E0,-6.979669297E0,-7.626406431E0,-4.149989681E-1,1.034650099E1
4.138340125E0,-6.796685945E0,-7.805064597E0,-7.250681895E-1,1.037495528E1
4.148311125E0,-6.636618417E0,-7.945267965E0,-8.218390238E-1,1.038496059E1
4.158282125E0,-6.346961972E0,-8.037358103E0,-9.091774222E-1,1.028152008E1
4.168253125E0,-5.783011470E0,-8.045488656E0,-8.949277577E-1,9.948567991E0
4.178224125E0,-5.105422672E0,-8.003140782E0,-7.332861587E-1,9.521203265E0
4.188195125E0,-4.323307877E0,-7.982241079E0,-6.517631087E-1,9.101206447E0
4.198166125E0,-3.458249744E0,-7.810594894E0,-7.628672227E-1,8.575946028E0
4.208137125E0,-2.674367920E0,-7.701081222E0,-1.056938901E0,8.220463223E0
4.218108125E0,-1.888820225E0,-8.057624552E0,-1.437048264E0,8.399884700E0
4.228079125E0,-1.044678167E0,-8.688337392E0,-1.679796006E0,8.910683124E0
4.238050125E0,-4.956520987E-1,-9.103365158E0,-1.541750554E0,9.246292390E0
4.248021125E0,-1.237212360E-2,-9.319187057E0,-1.600724401E0,9.455671266E0
4.257992125E0,6.668749452E-1,-9.369545032E0,-1.507979375E0,9.513521856E0
4.267963125E0,1.315074468E0,-9.307071626E0,-1.475196376E0,9.514578680E0
4.277935125E0,1.698643044E0,-9.163863375E0,-1.070809373E0,9.381279916E0
4.287906125E0,2.558374949E0,-9.114426920E0,-1.675607353E-1,9.468164398E0
4.297877125E0,3.188393140E0,-8.753564837E0,3.261869252E-2,9.316212328E0
4.307848125E0,4.282729370E0,-8.014125946E0,-8.271120429E-2,9.087069201E0
4.317819125E0,5.295277671E0,-7.635882429E0,-4.077222544E-1,9.301231291E0
4.327790125E0,6.382270383E0,-7.681712905E0,-4.723258013E-1,9.998258852E0
4.337761125E0,7.665660544E0,-7.960990543E0,-3.471386683E-1,1.105713468E1
4.347732125E0,8.870268245E0,-8.010240471E0,-2.813104221E-1,1.195511383E1
4.357703125E0,9.980296648E0,-7.462618904E0,2.545673043E-2,1.246184778E1
4.367674125E0,1.068203620E1,-6.377907191E0,5.484366685E-2,1.244132651E1
4.377645125E0,1.074696719E1,-4.894913553E0,3.428690314E-2,1.180926154E1
4.387616125E0,1.051744761E1,-3.614648144E0,6.360250354E-2,1.112144013E1
4.397587125E0,9.995447953E0,-2.566390312E0,3.684365666E-1,1.032623283E1
4.407558125E0,9.415632201E0,-1.539125154E0,1.060975234E0,9.599411671E0
4.417529125E0,8.905621095E0,-5.998202455E-1,1.951661713E0,9.136676358E0
4.427500125E0,8.440229507E0,1.586361301E-1,2.890150935E0,8.922758093E0
4.437471125E0,8.068903831E0,7.633382159E-1,3.588320763E0,8.863743011E0
4.447442125E0,7.744947034E0,1.247935569E0,4.036536448E0,8.822424510E0
4.457413125E0,7.463086681E0,1.727233590E0,4.144352088E0,8.709572488E0
4.467384125E0,7.324393650E0,2.255720728E0,3.831231351E0,8.568159196E0
4.477355125E0,7.272631173E0,2.790847380E0,3.159443283E0,8.406073705E0
4.487326125E0,7.097667863E0,3.315071898E0,2.403719019E0,8.194172069E0
4.497297125E0,6.892787274E0,3.610374999E0,1.543626341E0,7.932723764E0
4.507268125E0,6.471668463E0,3.713457318E0,7.591779220E-1,7.499907271E0
4.517239125E0,5.866948836E0,3.776609001E0,7.918884158E-2,6.977831688E0
4.527211125E0,5.177693088E0,3.821902703E0,-4.006990175E-1,6.447945850E0
4.537182125E0,4.613477708E0,3.802502811E0,-6.486877656E-1,6.013651138E0
4.547153125E0,4.266785182E0,3.713255589E0,-5.476266830E-1,5.682747385E0
4.557124125E0,4.266591055E0,3.633099033E0,-2.872911005E-1,5.611215910E0
4.567095125E0,4.653830513E0,3.682127352E0,-1.766689432E-1,5.936953107E0
4.577066125E0,5.293360369E0,3.969351940E0,-2.080519728E-1,6.619569808E0
4.587037125E0,5.927725965E0,4.463231163E0,-3.938453498E-1,7.430577480E0
4.597008125E0,6.389297567E0,5.024000779E0,-6.968071344E-1,8.157772209E0
4.606979125E0,6.601505302E0,5.445407272E0,-8.963439533E-1,8.604403820E0
4.616950125E0,6.761335434E0,5.822093090E0,-9.025643675E-1,8.968112802E0
4.626921125E0,6.985385535E0,6.220151067E0,-7.197638878E-1,9.381042075E0
4.636892125E0,7.345860533E0,6.647079670E0,-4.957032618E-1,9.919226625E0
4.646863125E0,7.776091644E0,7.133606604E0,-2.723621356E-1,1.055604687E1
4.656834125E0,8.184942995E0,7.634249886E0,-2.887986588E-1,1.119635958E1
4.666805125E0,8.535170163E0,8.204890187E0,-5.148542087E-1,1.185050326E1
4.676776125E0,8.815987372E0,8.639710777E0,-9.496731913E-1,1.238015003E1
4.686747125E0,8.975770726E0,8.951174998E0,-1.411678072E0,1.275463951E1
4.696718125E0,9.118476702E0,8.978446997E0,-1.836565998E0,1.292795817E1
4.706689125E0,9.327077290E0,8.523281019E0,-2.187553011E0,1.282287325E1
4.716660125E0,9.546163105E0,7.703040624E0,-2.389819310E0,1.249709171E1
4.726631125E0,9.616452484E0,6.849641839E0,-2.379170361E0,1.204384504E1
4.736602125E0,9.440128527E0,6.184646773E0,-2.270970997E0,1.151187177E1
4.746573125E0,9.073718605E0,5.778833050E0,-2.117714159E0,1.096412304E1
4.756544125E0,8.583251817E0,5.535854927E0,-2.001053875E0,1.040779122E1
4.766515125E0,8.195798936E0,5.113819274E0,-2.086742481E0,9.883155465E0
4.776486125E0,7.980554157E0,4.498046654E0,-2.044553797E0,9.386259563E0
4.786457125E0,7.963179156E0,3.790834107E0,-1.867106005E0,9.014917100E0
4.796428125E0,7.974322779E0,3.087517560E0,-1.768001547E0,8.732034009E0
4.806399125E0,7.952793331E0,2.320241829E0,-1.753586991E0,8.467910678E0
4.816371125E0,7.864795659E0,1.330914575E0,-1.786761754E0,8.174280515E0
4.826342125E0,7.616570245E0,4.468787187E-1,-1.586583495E0,7.792887146E0
4.836313125E0,7.131174747E0,-1.905549109E-2,-1.190324999E0,7.229860994E0
4.846284125E0,6.413971648E0,-1.619286972E-1,-9.660886645E-1,6.488341892E0
4.856255125E0,5.706357982E0,-2.842898709E-1,-9.926072493E-1,5.799018132E0
4.866226125E0,5.279681978E0,-5.936046553E-1,-1.009623085E0,5.408026169E0
4.876197125E0,5.211752535E0,-1.077721367E0,-8.941585565E-1,5.396607022E0
4.886168125E0,5.358107758E0,-1.587917830E0,-6.779089335E-1,5.629419357E0
4.896139125E0,5.455824087E0,-2.056710159E0,-5.145608246E-1,5.853276517E0
4.906110125E0,5.457166607E0,-2.443157319E0,-4.653341393E-1,5.997184417E0
4.916080792E0,5.499959455E0,-2.835871525E0,-3.587103081E-1,6.198418701E0
4.926051792E0,5.457491713E0,-3.194095929E0,-2.702770185E-1,6.329258587E0
4.936022792E0,5.429791698E0,-3.536824043E0,-2.594593772E-1,6.485297322E0
4.945993792E0,5.477186889E0,-3.832483824E0,-2.490861243E-1,6.689510623E0
4.955964792E0,5.504764112E0,-4.327181073E0,-3.679030082E-1,7.011581604E0
4.965935792E0,5.425648361E0,-4.825582532E0,-1.041403726E-1,7.261869741E0
4.975906792E0,5.228635785E0,-5.083090401E0,3.668367684E-1,7.301438859E0
4.985877792E0,4.864414476E0,-5.100872954E0,8.923330557E-1,7.104765398E0
4.995848792E0,4.468160366E0,-5.013831301E0,1.312053212E0,6.842838958E0
5.005819792E0,4.081546560E0,-4.898549352E0,1.625948120E0,6.580160740E0
5.015790792E0,3.719961176E0,-4.847004099E0,2.079899631E0,6.454265440E0
5.025761792E0,3.357106946E0,-4.734705691E0,2.558728998E0,6.343082777E0
5.035732792E0,2.970535825E0,-4.637811481E0,2.986212795E0,6.265049503E0
5.045703792E0,2.629377689E0,-4.763071119E0,3.175158844E0,6.299373556E0
5.055674792E0,2.353434134E0,-5.091105765E0,3.177888617E0,6.446470832E0
5.065645792E0,2.029759172E0,-5.480878236E0,3.169473597E0,6.648722540E0
5.075616792E0,1.545862316E0,-5.981389371E0,3.155119559E0,6.936965370E0
5.085587792E0,1.221061181E0,-6.477902180E0,3.229812477E0,7.340701308E0
5.095558792E0,5.194543594E-1,-6.430470736E0,3.389169276E0,7.287472477E0
5.105530792E0,-1.830909401E-1,-6.633279072E0,3.175471086E0,7.356461796E0
5.115501792E0,-4.955293071E-1,-6.887412513E0,3.079984885E0,7.560972643E0
5.125472792E0,-7.467461568E-1,-7.009264394E0,3.176522707E0,7.731604858E0
5.135443792E0,-9.700361198E-1,-6.969283472E0,3.365567867E0,7.799931362E0
5.145414792E0,-1.120944570E0,-7.081171113E0,3.376612965E0,7.924709217E0
5.155385792E0,-1.306887782E0,-7.352544485E0,3.286822829E0,8.159109656E0
5.165356792E0,-1.515778976E0,-7.693159415E0,2.956202545E0,8.379822264E0
5.175327792E0,-1.847393872E0,-7.864382846E0,2.786958396E0,8.545672517E0
5.185298792E0,-2.210598934E0,-7.939664578E0,2.685239648E0,8.668075520E0
5.195269792E0,-2.657681136E0,-7.906411462E0,2.634370041E0,8.747257670E0
5.205240792E0,-3.044827039E0,-7.832345951E0,2.624651677E0,8.803715762E0
5.215211792E0,-3.397435192E0,-7.662648643E0,2.730323727E0,8.815521412E0
5.225182792E0,-3.693492000E0,-7.472855625E0,2.887908821E0,8.821874613E0
5.235153792E0,-3.978450208E0,-7.361683098E0,3.004043879E0,8.890822443E0
5.245124792E0,-4.307094133E0,-7.240694851E0,3.066524886E0,8.965617473E0
5.255095792E0,-4.731359330E0,-7.145796880E0,3.139546377E0,9.127153204E0
5.265066792E0,-5.171192738E0,-7.090153021E0,3.135564424E0,9.318973573E0
5.275037792E0,-5.548869075E0,-7.050573803E0,3.055674501E0,9.478274401E0
5.285008792E0,-5.841559641E0,-7.024235605E0,2.967989362E0,9.605866214E0
5.294979792E0,-6.075225488E0,-7.065657281E0,2.883118197E0,9.754191308E0
5.304950792E0,-6.274859371E0,-7.257337196E0,2.723881850E0,9.973080549E0
5.314921792E0,-6.364925787E0,-7.442226740E0,2.392711928E0,1.008087742E1
5.324892792E0,-6.465965674E0,-7.592845752E0,2.012175425E0,1.017393084E1
5.334863792E0,-6.696924845E0,-7.836570565E0,1.737677009E0,1.045371522E1
5.344834792E0,-6.932648912E0,-8.148341764E0,1.428348484E0,1.079339028E1
5.354805792E0,-7.062924877E0,-8.426650518E0,1.176329981E0,1.105789758E1
5.364776792E0,-7.028078980E0,-8.693380031E0,1.046589621E0,1.122782705E1
5.374747792E0,-6.740683653E0,-9.111268255E0,8.214300111E-1,1.136339617E1
5.384718792E0,-6.380447806E0,-9.595155755E0,6.228842953E-1,1.153971893E1
5.394689792E0,-6.016532891E0,-9.810486488E0,5.060586807E-1,1.151956634E1
5.404660792E0,-5.716181889E0,-9.656683667E0,4.964356256E-1,1.123266323E1
5.414631792E0,-5.305683376E0,-9.285918154E0,3.002761585E-1,1.069900546E1
5.424602792E0,-4.755938686E0,-9.089766873E0,3.744264543E-3,1.025879275E1
5.434573792E0,-3.935628124E0,-9.255685126E0,-4.318823647E-1,1.006694583E1
5.444544792E0,-2.851120479E0,-9.551011031E0,-6.824402332E-1,9.990817002E0
5.454516792E0,-1.801314304E0,-9.510257692E0,-6.658250776E-1,9.702219212E0
5.464487792E0,-8.493051499E-1,-9.301564718E0,-6.709478232E-1,9.364325733E0
5.474458792E0,1.106404299E-1,-9.087565981E0,-6.131951666E-1,9.108902518E0
5.484429792E0,5.794432837E-1,-8.688153790E0,-7.499916539E-1,8.739694404E0
5.494400792E0,1.028236381E0,-8.164253207E0,-3.271385595E-1,8.235248638E0
5.504371792E0,1.884700862E0,-7.755778416E0,7.741684288E-2,7.981866295E0
5.514342792E0,2.455834667E0,-7.232748485E0,3.538910329E-1,7.646503346E0
5.524313792E0,3.110896482E0,-6.689574895E0,4.450383076E-1,7.390950432E0
5.534284792E0,3.811416306E0,-6.116780480E0,2.841969001E-1,7.212673955E0
5.544255792E0,4.511934961E0,-5.670599334E0,-3.480657443E-1,7.254957179E0
5.554226792E0,5.276292347E0,-4.980108654E0,-1.080573346E0,7.335419681E0
5.564197792E0,6.046775860E0,-4.631538003E0,-1.283748010E0,7.724160248E0
5.574168792E0,6.776151693E0,-4.257662649E0,-1.427119692E0,8.128997086E0
5.584139792E0,7.206899114E0,-3.770856803E0,-1.566562921E0,8.283288915E0
5.594110792E0,7.210914397E0,-3.692846760E0,-1.382251375E0,8.218577887E0
5.604081792E0,6.689788318E0,-3.774487047E0,-9.894398126E-1,7.744611762E0
5.614052792E0,5.745144902E0,-3.585165313E0,-5.065673885E-1,6.790928566E0
5.624023792E0,5.033355154E0,-3.188294322E0,-2.435257146E-1,5.963152653E0
5.633994792E0,4.681690156E0,-2.690425544E0,-1.571845588E-1,5.401973650E0
5.643965792E0,4.684534242E0,-2.134322591E0,5.711238652E-2,5.148150718E0
5.653936792E0,5.084198449E0,-1.550711412E0,5.782288170E-1,5.346786728E0
5.663907792E0,5.493019980E0,-9.820685202E-1,1.260986262E0,5.720822793E0
5.673878792E0,5.585810614E0,-2.284741044E-1,1.868858708E0,5.894583404E0
5.683849792E0,5.564664744E0,8.568486428E-1,2.222498311E0,6.053030815E0
5.693820792E0,5.439765294E0,1.991474528E0,2.347695091E0,6.250495139E0
5.703791792E0,5.121597240E0,2.706826399E0,2.315569904E0,6.238552029E0
5.713762792E0,4.811263871E0,3.046556645E0,2.240059838E0,6.119447320E0
5.723733792E0,4.522317277E0,2.955500879E0,2.058242129E0,5.781236863E0
5.733704792E0,4.430525932E0,2.807729461E0,1.720254353E0,5.520161211E0
5.743675792E0,4.578984398E0,2.790581916E0,1.385550374E0,5.538428964E0
5.753646792E0,4.791375736E0,2.892216464E0,1.226788236E0,5.729503198E0
5.763617792E0,4.882081254E0,3.055925639E0,1.203939364E0,5.884120059E0
5.773588792E0,4.928324543E0,3.323064457E0,1.237337783E0,6.071420342E0
5.783559792E0,5.203095732E0,3.685229884E0,1.154537701E0,6.479666797E0
5.793530792E0,5.712871195E0,4.217016022E0,9.542196938E-1,7.164541621E0
5.803501792E0,6.204773474E0,4.752558410E0,6.777721086E-1,7.845087657E0
5.813472792E0,6.458476560E0,4.953378693E0,1.843779123E-1,8.141368139E0
5.823443792E0,6.554170922E0,5.039976541E0,-4.335160768E-1,8.279278725E0
5.833414792E0,6.566545385E0,5.243440350E0,-9.164332321E-1,8.452989700E0
5.843386792E0,6.450688069E0,5.507908160E0,-1.092718890E0,8.552336724E0
5.853357792E0,6.281585423E0,5.917413815E0,-1.011655870E0,8.688932574E0
5.863328792E0,6.166835570E0,6.353560554E0,-8.445624733E-1,8.894429629E0
5.873299792E0,6.257341697E0,6.739948073E0,-6.754598272E-1,9.221576390E0
5.883270792E0,6.525200307E0,7.150620832E0,-5.264017287E-1,9.694674627E0
5.893241792E0,6.777062105E0,7.481796017E0,-5.109098232E-1,1.010776292E1
5.903212792E0,6.950145535E0,7.667258588E0,-5.934388867E-1,1.036549791E1
5.913183792E0,6.887720661E0,7.722115411E0,-7.326945667E-1,1.037345669E1
5.923155125E0,6.715060569E0,7.632436080E0,-9.553518610E-1,1.021072065E1
5.933126125E0,6.532563121E0,7.455152010E0,-1.055404591E0,9.968327406E0
5.943097125E0,6.339298611E0,7.288397021E0,-9.949350259E-1,9.710681424E0
5.953068125E0,6.124894077E0,7.213461444E0,-9.446630046E-1,9.510033735E0
5.963039125E0,5.990605752E0,7.098551377E0,-1.017756855E0,9.344122107E0
5.973010125E0,6.098804970E0,6.789533046E0,-1.146468251E0,9.198237358E0
5.982981125E0,6.418108553E0,6.433516551E0,-1.301597221E0,9.180218294E0
5.992952125E0,6.764336225E0,6.036992884E0,-1.503387264E0,9.190304723E0
6.002923125E0,7.143233460E0,5.524976767E0,-1.795786346E0,9.207388400E0
6.012894125E0,7.502780505E0,4.955269098E0,-2.079075758E0,9.228703221E0
6.022865125E0,7.722819416E0,4.371849707E0,-2.070063153E0,9.112637985E0
6.032836125E0,7.776385759E0,3.679344077E0,-1.895879276E0,8.809319300E0
6.042807125E0,7.864485172E0,2.797841234E0,-1.760347834E0,8.530935886E0
6.052778125E0,8.023938743E0,2.073591655E0,-1.501256539E0,8.422419278E0
6.062749125E0,8.028525884E0,1.675441293E0,-1.105721344E0,8.275684327E0
6.072720125E0,7.972206087E0,1.522576949E0,-7.133845755E-1,8.147590319E0
6.082691125E0,7.935780857E0,1.314975066E0,-4.897426102E-1,8.058884852E0
6.092662125E0,8.045478131E0,8.893615007E-1,-5.027474025E-1,8.110082440E0
6.102633125E0,8.174265980E0,3.120735008E-1,-6.088989249E-1,8.202851460E0
6.112604125E0,8.117769597E0,-2.344838727E-1,-6.547829032E-1,8.147509225E0
6.122575125E0,7.773618856E0,-7.780094647E-1,-8.947257364E-1,7.863522302E0
6.132546125E0,7.294350071E0,-1.376455030E0,-1.111532891E0,7.505842842E0
6.142517125E0,6.764291201E0,-1.817975945E0,-1.251312043E0,7.115226899E0
6.152488125E0,6.158793894E0,-2.345719317E0,-1.429293102E0,6.743591040E0
6.162459125E0,5.607426601E0,-2.880757676E0,-1.452256287E0,6.469238456E0
6.172430125E0,5.082480537E0,-3.289152945E0,-1.357426436E0,6.204251931E0
6.182401125E0,4.747033961E0,-3.708766097E0,-1.116472034E0,6.126645672E0
6.192372125E0,4.559998489E0,-4.095016791E0,-8.833011541E-1,6.192170029E0
6.202343125E0,4.392910209E0,-4.421660968E0,-7.919825560E-1,6.282991500E0
6.212314125E0,4.144084870E0,-4.553386458E0,-1.002555410E0,6.237939162E0
6.222285125E0,3.845893244E0,-4.577616735E0,-1.302583939E0,6.119002756E0
6.232256125E0,3.593146763E0,-4.693553572E0,-1.366191120E0,6.066846543E0
6.242227125E0,3.229606655E0,-4.789284479E0,-1.163983878E0,5.892576977E0
6.252198125E0,2.818741522E0,-5.012344354E0,-9.414546373E-1,5.827112195E0
6.262169125E0,2.638188858E0,-5.224193655E0,-7.317845938E-1,5.898113977E0
6.272140125E0,2.578519192E0,-5.427235880E0,-3.117407942E-1,6.016712794E0
6.282111125E0,2.517348545E0,-5.659097861E0,1.605736050E-1,6.195822478E0
6.292082125E0,2.338000408E0,-5.977902092E0,5.286704484E-1,6.440578527E0
6.302053125E0,2.055384595E0,-6.234681398E0,8.745244834E-1,6.622737428E0
6.312024125E0,1.243615646E0,-6.353345962E0,1.114398319E0,6.569129957E0
6.321996125E0,7.948617250E-1,-6.742627852E0,1.063739212E0,6.872144980E0
6.331967125E0,2.647297651E-1,-6.825688135E0,1.146473221E0,6.926362769E0
6.341938125E0,-2.756289750E-1,-6.946503890E0,9.700942996E-1,7.019328356E0
6.351909125E0,-5.872230041E-1,-7.164569365E0,8.221913186E-1,7.235460152E0
6.361880125E0,-8.034483612E-1,-7.295987291E0,6.776200810E-1,7.371304416E0
6.371851125E0,-9.783473521E-1,-7.362352020E0,6.182062304E-1,7.452755849E0
6.381822125E0,-1.086717308E0,-7.327529511E0,6.254570702E-1,7.434032539E0
6.391793125E0,-1.262021511E0,-7.311534453E0,6.745991170E-1,7.450256259E0
6.401764125E0,-1.481029558E0,-7.378465776E0,8.028054598E-1,7.568335509E0
6.411735125E0,-1.742988328E0,-7.554202673E0,9.828903463E-1,7.814733506E0
6.421706125E0,-2.101902119E0,-7.798429177E0,1.258013245E0,8.174110806E0
6.431677125E0,-2.533619592E0,-8.057591223E0,1.606636229E0,8.597981422E0
6.441648125E0,-3.010812616E0,-8.245189782E0,1.913350172E0,8.983821905E0
6.451619125E0,-3.557637792E0,-8.344328154E0,2.176761682E0,9.328606027E0
6.461590125E0,-4.070663722E0,-8.361489147E0,2.360573584E0,9.594639729E0
6.471561125E0,-4.520925055E0,-8.284585397E0,2.442024128E0,9.748671725E0
6.481532125E0,-4.930227227E0,-8.159249745E0,2.516263010E0,9.859618474E0
6.491503125E0,-5.284689533E0,-7.995760426E0,2.505959631E0,9.906561559E0
6.501474125E0,-5.519443547E0,-7.786420750E0,2.420180393E0,9.846312929E0
6.511445125E0,-5.662430189E0,-7.505655581E0,2.359848529E0,9.693650831E0
6.521416125E0,-5.728844034E0,-7.246423953E0,2.289805902E0,9.517012406E0
6.531387125E0,-5.800939034E0,-7.039995605E0,2.133432352E0,9.368242386E0
6.541358125E0,-5.885068772E0,-6.898766052E0,1.950325040E0,9.275277637E0
6.551329125E0,-5.952920448E0,-6.822601390E0,1.723731400E0,9.217179694E0
6.561300125E0,-6.082314067E0,-6.890902716E0,1.475062767E0,9.308861092E0
6.571271125E0,-6.281439827E0,-7.146614320E0,1.287752184E0,9.601504477E0
6.581242125E0,-6.542719735E0,-7.400846579E0,1.284832961E0,9.961451067E0
6.591213125E0,-6.793555931E0,-7.616323493E0,1.306859715E0,1.028925012E1
6.601184125E0,-6.949952577E0,-7.801998902E0,1.337517544E0,1.053384929E1
6.611155125E0,-7.017720637E0,-7.945105412E0,1.369445680E0,1.068870827E1
6.621126125E0,-6.914780406E0,-7.967150584E0,1.341363550E0,1.063432803E1
6.631097125E0,-6.654890381E0,-7.996708260E0,1.267285759E0,1.048050200E1
6.641068125E0,-6.234875525E0,-8.001463800E0,1.071310480E0,1.020023538E1
6.651039125E0,-5.654985514E0,-7.922728118E0,6.701830074E-1,9.756927142E0
6.661010125E0,-4.870003830E0,-8.037839913E0,1.415654764E-1,9.399140841E0
6.670981125E0,-4.041201941E0,-8.256484264E0,-1.733041629E-1,9.194067645E0
6.680952125E0,-3.346744511E0,-8.644289732E0,-3.257270417E-1,9.275265058E0
6.690923125E0,-2.683410054E0,-8.789416455E0,-4.358093548E-1,9.200242439E0
6.700894125E0,-2.286622093E0,-8.790919189E0,-3.549903095E-1,9.090375070E0
6.710865125E0,-2.072373095E0,-9.062422369E0,-4.773716560E-1,9.308604253E0
6.720836125E0,-1.620286261E0,-9.446579760E0,-2.280370250E-1,9.587241397E0
6.730807125E0,-5.882760876E-1,-9.613489700E0,2.132225195E-1,9.633831886E0
6.740778125E0,3.485209501E-1,-1.029915584E1,5.763308108E-3,1.030505270E1
6.750749125E0,1.226784436E0,-1.072044422E1,-3.993399784E-1,1.079779592E1
6.760720125E0,2.248535669E0,-1.037189988E1,-2.428225869E-1,1.061561033E1
6.770691125E0,3.160724115E0,-9.526627557E0,-2.898084730E-1,1.004145400E1
6.780662125E0,4.226798413E0,-8.177982470E0,-4.493848354E-1,9.216678840E0
6.790633125E0,4.863198840E0,-7.183714904E0,-3.917532161E-1,8.683889299E0
6.800604125E0,5.512312283E0,-6.600546359E0,-1.036594391E-2,8.599587571E0
6.810575125E0,6.463461896E0,-6.269219731E0,2.720028242E-1,9.008520481E0
6.820546125E0,7.363240212E0,-6.068001838E0,5.055780396E-1,9.554766448E0
6.830517125E0,8.178288279E0,-5.929331610E0,5.352824798E-1,1.011572537E1
6.840488125E0,8.956660856E0,-5.378554886E0,6.607798076E-1,1.046839321E1
6.850459125E0,9.608479221E0,-4.490656359E0,8.463233623E-1,1.063978997E1
6.860430125E0,9.842314053E0,-3.707722954E0,7.702274054E-1,1.054569133E1
6.870401125E0,9.651807674E0,-3.151139944E0,1.030089656E0,1.020530054E1
6.880372125E0,9.251334797E0,-2.729368585E0,1.120132391E0,9.710373061E0
6.890343125E0,8.705013067E0,-2.122263293E0,1.364556531E0,9.063292365E0
6.900314125E0,8.287519530E0,-1.312391181E0,2.314753048E0,8.704219221E0
6.910285125E0,8.068096915E0,-4.599314582E-1,3.509410249E0,8.810316968E0
6.920255625E0,8.028353975E0,1.765759724E-1,4.769173858E0,9.339735859E0
6.930226625E0,8.005142868E0,5.530957299E-1,5.882960851E0,9.949746509E0
6.940197625E0,7.896620885E0,7.612987071E-1,6.427763475E0,1.021040354E1
6.950168625E0,7.740600799E0,9.591222918E-1,6.319616883E0,1.003864402E1
6.960139625E0,7.461693875E0,1.254926500E0,5.703506294E0,9.475320578E0
6.970110625E0,7.010037396E0,1.560226586E0,4.835423689E0,8.657727966E0
6.980081625E0,6.487027345E0,1.888265324E0,3.754130842E0,7.729202293E0
6.990052625E0,5.965835193E0,2.260633559E0,2.724759225E0,6.937288120E0
7.000023625E0,5.608656855E0,2.644159450E0,1.806112237E0,6.458378460E0
7.009994625E0,5.493909926E0,3.059378420E0,1.003056808E0,6.367806965E0
7.019965625E0,5.392770052E0,3.403626809E0,2.856502256E-1,6.383434839E0
7.029936625E0,5.123642596E0,3.585169407E0,-3.226248014E-1,6.261728187E0
7.039907625E0,4.698206202E0,3.788623860E0,-7.322326367E-1,6.079718489E0
7.049878625E0,4.203084738E0,3.962941638E0,-9.265522774E-1,5.850583463E0
7.059849625E0,3.765204884E0,3.973775359E0,-8.791218567E-1,5.544412833E0
7.069820625E0,3.541848263E0,3.935552695E0,-7.404962142E-1,5.346176089E0
7.079791625E0,3.678925124E0,4.020837843E0,-4.310943063E-1,5.466943326E0
7.089762625E0,4.169201000E0,4.360858696E0,-1.672303677E-2,6.033208533E0
7.099733625E0,4.663066775E0,4.645264342E0,2.726088881E-1,6.587639043E0
7.109704625E0,5.070980233E0,4.995721890E0,2.206142771E-1,7.121850067E0
7.119675625E0,5.310107964E0,5.519397354E0,-6.184585378E-2,7.659296225E0
7.129646625E0,5.450445818E0,5.900962089E0,-3.605615366E-1,8.041064470E0
7.139617625E0,5.414380192E0,6.019985088E0,-4.730910556E-1,8.110459202E0
7.149588625E0,5.310942362E0,6.039445206E0,-3.851629655E-1,8.051668006E0
7.159560625E0,5.280376042E0,6.069585264E0,-2.139225774E-1,8.047856813E0
7.169530625E0,5.434719146E0,6.187524188E0,-5.396746159E-2,8.235565571E0
7.179501625E0,5.640149374E0,6.431665322E0,5.670030400E-2,8.554578815E0
7.189473625E0,5.938226395E0,6.762662167E0,-1.453851700E-2,8.999796868E0
7.199444625E0,6.284036576E0,7.052910935E0,-2.673253441E-1,9.450086306E0
7.209415625E0,6.658979924E0,7.100913067E0,-7.166860597E-1,9.761076730E0
7.219386625E0,7.083467900E0,6.944975427E0,-1.278951978E0,1.000219573E1
7.229357625E0,7.369132451E0,6.542490524E0,-1.731047290E0,1.000523963E1
7.239328625E0,7.511590505E0,5.890890845E0,-1.927897167E0,9.738756304E0
7.249299625E0,7.368413243E0,5.318317455E0,-1.890125177E0,9.281734076E0
7.259270625E0,7.127151278E0,5.040947179E0,-1.714871260E0,8.896528382E0
7.269241625E0,6.946867002E0,4.805297956E0,-1.502515737E0,8.579475691E0
7.279212625E0,6.839249582E0,4.659433900E0,-1.241038632E0,8.368144119E0
7.289183625E0,6.797133842E0,4.570859692E0,-1.123490009E0,8.267769747E0
7.299154625E0,6.882317834E0,4.471703194E0,-1.308094793E0,8.311049284E0
7.309125625E0,7.044182212E0,4.497680034E0,-1.722924484E0,8.533352067E0
7.319096625E0,7.082882009E0,4.505694228E0,-2.141960078E0,8.663514933E0
7.329067625E0,6.990028224E0,3.902814719E0,-2.603469261E0,8.418462419E0
7.339038625E0,7.030267008E0,2.775511887E0,-3.072037057E0,8.158770258E0
7.349009625E0,7.164693911E0,1.497444447E0,-3.172010411E0,7.977269505E0
7.358980625E0,7.181864260E0,4.342715371E-1,-2.994901757E0,7.793407634E0
7.368951625E0,6.984915419E0,-1.418107671E-1,-2.541965908E0,7.434429660E0
7.378922625E0,6.698757947E0,-2.343587422E-1,-2.038016610E0,7.005839975E0
7.388893625E0,6.396194358E0,7.543375969E-2,-1.502232878E0,6.570669383E0
7.398864625E0,6.179187228E0,6.223752952E-1,-1.072839088E0,6.302435205E0
7.408835625E0,6.205018473E0,1.023222393E0,-1.019853666E0,6.370976363E0
7.418806625E0,6.469668131E0,1.235237755E0,-1.071128047E0,6.673060267E0
7.428777625E0,6.816874042E0,1.014644528E0,-1.212662533E0,6.997844357E0
7.438748625E0,7.229067662E0,1.682284874E-1,-1.519316980E0,7.388913599E0
7.448719625E0,7.399698771E0,-1.019611738E0,-1.712451536E0,7.663396131E0
7.458690625E0,7.289244282E0,-2.146975965E0,-1.606700256E0,7.766857390E0
7.468661625E0,6.857840804E0,-2.926154873E0,-1.200609959E0,7.552074359E0
7.478632625E0,6.269287559E0,-3.435256153E0,-8.119610301E-1,7.194736412E0
7.488603625E0,5.631345806E0,-3.804962150E0,-4.527592635E-1,6.811371631E0
7.498574625E0,5.034127572E0,-3.990570316E0,5.108829260E-2,6.424149895E0
7.508545625E0,4.682203542E0,-4.308690423E0,4.089133322E-1,6.376131529E0
7.518516625E0,4.405546626E0,-4.695732245E0,8.160996893E-1,6.490359088E0
7.528487625E0,3.986142220E0,-5.029027045E0,1.246043994E0,6.537053500E0
7.538458625E0,3.579653728E0,-5.389274586E0,1.453662250E0,6.631088547E0
7.548429625E0,3.169299642E0,-5.672832971E0,1.736173983E0,6.726053392E0
7.558400625E0,2.694209862E0,-5.933821102E0,1.988045428E0,6.813319623E0
7.568371625E0,2.242960349E0,-6.027361350E0,2.118829808E0,6.771218186E0
7.578342625E0,1.539894648E0,-6.088684609E0,2.074291859E0,6.614079113E0
7.588313625E0,1.008742933E0,-6.268403460E0,1.940700523E0,6.639033270E0
7.598284625E0,7.279163682E-1,-6.539116681E0,1.731627188E0,6.803560973E0
7.608255625E0,3.462364429E-1,-6.553897857E0,1.616316294E0,6.759137161E0
7.618226625E0,-7.247799218E-2,-6.526968505E0,1.308490503E0,6.657230530E0
7.628197625E0,-3.401880831E-1,-6.522493047E0,1.079083183E0,6.619899092E0
7.638168625E0,-4.273747462E-1,-6.583281870E0,9.566150057E-1,6.666135434E0
7.648139625E0,-7.025324357E-1,-6.644594604E0,8.342216724E-1,6.733506892E0
7.658110625E0,-1.150907457E0,-6.723323854E0,5.406937855E-1,6.842515721E0
7.668081625E0,-1.698946515E0,-6.818498399E0,2.334278655E-1,7.030848330E0
7.678052625E0,-2.241733603E0,-6.940854895E0,9.887203127E-2,7.294560432E0
7.688023625E0,-2.737882715E0,-7.093075460E0,9.036140889E-2,7.603675849E0
7.697994625E0,-3.159220212E0,-7.226462143E0,2.907045588E-1,7.892207333E0
7.707965625E0,-3.666093117E0,-7.177432655E0,5.507881263E-1,8.078313303E0
7.717936625E0,-4.118491607E0,-6.991306425E0,9.001101449E-1,8.163978009E0
7.727907625E0,-4.304697359E0,-6.897464461E0,1.438757697E0,8.256843166E0
7.737878625E0,-4.238409814E0,-6.957182660E0,1.858310916E0,8.355825978E0
7.747849625E0,-4.187101666E0,-6.975090927E0,2.031061055E0,8.385041611E0
7.757820625E0,-4.294833691E0,-6.919321938E0,1.935718403E0,8.370759718E0
7.767791625E0,-4.521775825E0,-6.845516043E0,1.584450723E0,8.355718437E0
7.777762625E0,-4.630032345E0,-6.963238036E0,1.198187458E0,8.447457407E0
7.787733625E0,-4.722191480E0,-7.166255118E0,9.608659315E-1,8.635830483E0
7.797704625E0,-4.873999232E0,-7.188066401E0,8.356878617E-1,8.724823282E0
7.807675625E0,-5.139141811E0,-7.151866289E0,7.187198675E-1,8.836092361E0
7.817646625E0,-5.390971448E0,-7.092961439E0,7.617556670E-1,8.941641171E0
7.827617625E0,-5.548994790E0,-7.118536575E0,8.796036673E-1,9.068550533E0
7.837588625E0,-5.604746822E0,-7.199027592E0,1.055412777E0,9.184393357E0
7.847559625E0,-5.642314013E0,-7.421677285E0,1.153155419E0,9.393975120E0
7.857530625E0,-5.600613425E0,-7.760803514E0,1.064966543E0,9.629698627E0
7.867501625E0,-5.453184654E0,-8.198393930E0,9.366444254E-1,9.890813348E0
7.877472625E0,-5.202647250E0,-8.711184803E0,8.254885635E-1,1.018006436E1
7.887443625E0,-4.779170258E0,-9.118809409E0,4.559413183E-1,1.030538868E1
7.897414625E0,-4.198498474E0,-9.438627546E0,-4.726889133E-2,1.033040724E1
7.907385625E0,-3.716853966E0,-9.276736856E0,-5.527247241E-1,1.000891376E1
7.917356625E0,-3.330904988E0,-9.099083827E0,-1.029345890E0,9.744116557E0
7.927328750E0,-2.872720093E0,-9.158327231E0,-1.310017211E0,9.687291856E0
7.937299750E0,-2.363049295E0,-9.149963374E0,-1.346254161E0,9.545587042E0
7.947270750E0,-1.785901043E0,-9.088344830E0,-1.431063931E0,9.372054111E0
7.957241750E0,-1.242346215E0,-9.055062479E0,-1.401272660E0,9.246682956E0
7.967212750E0,-7.661138892E-1,-9.299432239E0,-1.446019939E0,9.442316671E0
7.977183750E0,-4.967864585E-1,-9.821312023E0,-1.404042778E0,9.933594655E0
7.987154750E0,5.286081755E-1,-1.055274958E1,-8.590694153E-1,1.060084670E1
7.997125750E0,1.676830591E0,-1.113962526E1,-5.553857920E-1,1.127880602E1
8.007096750E0,2.383921516E0,-1.115623253E1,-3.197722372E-1,1.141257466E1
8.017067750E0,2.925911629E0,-1.058309430E1,-4.800575745E-1,1.099060048E1
8.027037750E0,3.612916199E0,-9.836287912E0,-7.634268013E-1,1.050659525E1
8.037008750E0,4.235449369E0,-8.878070769E0,-5.570803151E-1,9.852386027E0
8.046979750E0,4.691088386E0,-7.840862421E0,1.275397602E-1,9.137926468E0
8.056950750E0,4.907519565E0,-6.936271262E0,7.264738601E-1,8.527799926E0
8.066921750E0,5.710129436E0,-5.519540026E0,1.127543445E0,8.021362384E0
8.076892750E0,6.157228010E0,-4.032751253E0,8.497241029E-1,7.409221989E0
8.086863750E0,6.102185245E0,-2.924457427E0,4.606877956E-1,6.782429451E0
8.096834750E0,6.077189568E0,-2.162598264E0,2.009094527E-1,6.453636874E0
8.106805750E0,5.862279249E0,-1.346315264E0,2.888261408E-2,6.014957772E0
8.116776750E0,5.389669858E0,-6.371781063E-1,-6.204275876E-2,5.427558053E0
8.126747750E0,4.918157405E0,-3.123670310E-1,-2.240886927E-2,4.928118056E0
8.136718750E0,4.407270970E0,-3.585039014E-1,4.776122689E-2,4.422085887E0
8.146689750E0,4.047628616E0,-3.348706251E-1,4.374351731E-1,4.084946178E0
8.156660750E0,4.051174952E0,-1.125355124E-2,1.244045416E0,4.237899732E0
8.166631750E0,4.327202708E0,4.614125580E-1,2.258166911E0,4.902744396E0
8.176602750E0,4.601230715E0,1.170288638E0,3.237866724E0,5.746710408E0
8.186573750E0,4.730864071E0,1.883140824E0,3.857653749E0,6.388175535E0
8.196544750E0,4.620141780E0,2.497085019E0,4.096614542E0,6.660585137E0
8.206515750E0,4.457033114E0,3.043154150E0,4.013018070E0,6.725343515E0
8.216486750E0,4.333006654E0,3.166327502E0,3.851403368E0,6.605594933E0
8.226457750E0,4.330704605E0,2.838907984E0,3.715851460E0,6.373535361E0
8.236428750E0,4.347642819E0,2.311963341E0,3.524189087E0,6.055334945E0
8.246399750E0,4.366699480E0,1.927939267E0,3.321820461E0,5.815454010E0
8.256370750E0,4.360356420E0,1.804594592E0,3.158193733E0,5.678332273E0
8.266341750E0,4.303589897E0,1.797710665E0,2.943512918E0,5.515153482E0
8.276312750E0,4.227833371E0,1.935552927E0,2.687852477E0,5.370799854E0
8.286283750E0,4.501595330E0,2.318696410E0,2.173077936E0,5.510261452E0
8.296254750E0,4.972263445E0,3.077438130E0,1.466260661E0,6.028594325E0
8.306225750E0,5.231528403E0,3.533248470E0,7.476948676E-1,6.357026175E0
8.316196750E0,5.387644383E0,3.718339743E0,5.451242208E-2,6.546429106E0
8.326167750E0,5.471361308E0,3.874677333E0,-3.688410477E-1,6.714533693E0
8.336138750E0,5.446351597E0,4.087596089E0,-5.991340747E-1,6.835945374E0
8.346109750E0,5.220316951E0,4.315973715E0,-6.887201428E-1,6.808353223E0
8.356080750E0,4.880061918E0,4.474498748E0,-6.931570101E-1,6.657072179E0
8.366051750E0,4.612286046E0,4.636582396E0,-5.132777993E-1,6.560071111E0
8.376022750E0,4.536582144E0,4.726224305E0,-1.939512661E-1,6.554036224E0
8.385993750E0,4.468831041E0,4.713009013E0,1.541092157E-2,6.494855066E0
8.395964750E0,4.420897906E0,4.732870250E0,-4.944142431E-2,6.476638292E0
8.405935750E0,4.416370700E0,4.927370278E0,-1.281113255E-1,6.618135729E0
8.415906750E0,4.430676205E0,5.211381821E0,-1.641044462E-1,6.842245420E0
8.425877750E0,4.436236323E0,5.462070667E0,-2.044902876E-1,7.039618240E0
8.435848750E0,4.412265662E0,5.647188837E0,-2.985339805E-1,7.172722814E0
8.445819750E0,4.333441979E0,5.755778648E0,-4.624233954E-1,7.219525097E0
8.455790750E0,4.245857120E0,5.764516727E0,-7.022761814E-1,7.193757545E0
8.465761750E0,4.254377391E0,5.721618045E0,-9.772052447E-1,7.196636028E0
8.475732750E0,4.383999344E0,5.733732306E0,-1.110007499E0,7.302551134E0
8.485703750E0,4.723473482E0,5.833529660E0,-1.140017602E0,7.592161100E0
8.495674750E0,5.164283668E0,6.072750362E0,-1.013503590E0,8.035876573E0
8.505645750E0,5.534651570E0,6.498687277E0,-9.124568331E-1,8.584747044E0
8.515616750E0,5.648923706E0,6.821910834E0,-9.809417617E-1,8.911287965E0
8.525587750E0,5.528021997E0,6.842425790E0,-1.076499299E0,8.862091662E0
8.535558750E0,5.353366835E0,6.524623772E0,-1.188514555E0,8.523016994E0
8.545529750E0,5.266217594E0,6.008176051E0,-1.257016879E0,8.087726420E0
8.555500750E0,5.353498982E0,5.395865568E0,-1.448264247E0,7.737750701E0
8.565471750E0,5.689670028E0,4.768184509E0,-1.640428311E0,7.602560989E0
8.575442750E0,6.157104049E0,4.286506671E0,-1.843531347E0,7.725456461E0
8.585413750E0,6.660061659E0,4.002365320E0,-2.063495268E0,8.039487681E0
8.595384750E0,7.344242023E0,4.040551731E0,-2.412245282E0,8.722549885E0
8.605355750E0,7.979504582E0,3.955031524E0,-2.847285290E0,9.349962634E0
8.615326750E0,8.368340914E0,3.522072687E0,-3.238678025E0,9.639666022E0
8.625297750E0,8.475164866E0,2.765030168E0,-3.567438895E0,9.602105582E0
8.635268750E0,8.389240617E0,1.989387656E0,-3.655072285E0,9.364644937E0
8.645239750E0,8.195049323E0,1.396623246E0,-3.528864813E0,9.031183575E0
8.655210750E0,7.957015606E0,9.547766411E-1,-3.438193209E0,8.720485556E0
8.665181750E0,7.663431585E0,6.783904517E-1,-3.245223106E0,8.349842530E0
8.675152750E0,7.483098777E0,4.425272208E-1,-3.169632641E0,8.138744911E0
8.685123750E0,7.401751143E0,-1.988111794E-2,-3.215488845E0,8.070048560E0
8.695094750E0,7.226518861E0,-1.939574057E-1,-3.220890795E0,7.914185482E0
8.705065750E0,6.899910352E0,-1.175758123E-1,-3.256526066E0,7.630697802E0
8.715036750E0,6.498867956E0,-1.011398739E-1,-3.248575022E0,7.266275089E0
8.725007750E0,6.164445813E0,-2.746536595E-1,-3.272892423E0,6.984815790E0
8.734978750E0,5.871362899E0,-7.633487409E-1,-3.153585835E0,6.708256644E0
8.744949750E0,5.530643304E0,-1.394813533E0,-2.910858557E0,6.403640971E0
8.754920750E0,5.159164431E0,-1.925975187E0,-2.605580106E0,6.092241438E0
8.764891750E0,4.787875593E0,-2.353351103E0,-2.294729112E0,5.807563672E0
8.774862750E0,4.432298223E0,-2.756651108E0,-1.920180889E0,5.561608357E0
8.784833750E0,4.277817124E0,-3.231763692E0,-1.516561041E0,5.571711883E0
8.794804750E0,4.443103877E0,-3.691712108E0,-9.586673784E-1,5.855677031E0
8.804775750E0,4.703769243E0,-4.139289569E0,-4.223832706E-1,6.279933984E0
8.814746750E0,4.830330471E0,-4.524174938E0,-1.122109920E-1,6.619127030E0
8.824717750E0,4.833109068E0,-4.934889797E0,1.059933552E-1,6.908206364E0
8.834688750E0,4.724471895E0,-5.445767460E0,3.171328041E-1,7.216480522E0
8.844659750E0,4.435697209E0,-5.881700191E0,5.900273287E-1,7.390395059E0
8.854630750E0,3.918050809E0,-6.234489609E0,8.779304865E-1,7.415574473E0
8.864601750E0,3.292963575E0,-6.528657181E0,1.118010145E0,7.397088642E0
8.874572750E0,2.649951702E0,-6.774710940E0,1.294171549E0,7.388763925E0
8.884543750E0,1.958909630E0,-7.031061645E0,1.434914030E0,7.438557189E0
8.894514750E0,1.248631972E0,-7.170639945E0,1.584057790E0,7.448919257E0
8.904484750E0,6.163766366E-1,-7.220354142E0,1.638103605E0,7.429456071E0
8.914455750E0,1.045417839E-1,-7.333486070E0,1.540635782E0,7.494298202E0
8.924426375E0,-3.427234358E-1,-7.567917902E0,1.486325089E0,7.720103821E0
8.934397375E0,-7.584897047E-1,-7.764184374E0,1.444010836E0,7.933664532E0
8.944368375E0,-1.251366130E0,-7.947594572E0,1.388413463E0,8.164427023E0
8.954339375E0,-1.784097177E0,-8.065438771E0,1.328218132E0,8.366508753E0
8.964310375E0,-2.319089343E0,-8.053240895E0,1.365190077E0,8.490972161E0
8.974281375E0,-2.918163484E0,-7.929108015E0,1.515046028E0,8.583810138E0
8.984252375E0,-3.457980772E0,-7.800418984E0,1.592258510E0,8.679830327E0
8.994223375E0,-3.912957299E0,-7.644351536E0,1.695960049E0,8.753492202E0
9.004194375E0,-4.256297032E0,-7.553736066E0,1.805932142E0,8.856431780E0
9.014165375E0,-4.544962374E0,-7.526432492E0,1.915744314E0,8.998552401E0
9.024136375E0,-4.733644422E0,-7.553473526E0,1.936324174E0,9.122044898E0
9.034107375E0,-4.853483691E0,-7.531359941E0,1.913777311E0,9.161890094E0
9.044078375E0,-5.029660299E0,-7.449521141E0,1.865550938E0,9.180039665E0
9.054049375E0,-5.173598868E0,-7.326861759E0,1.761664627E0,9.140705156E0
9.064020375E0,-5.224057415E0,-7.127069417E0,1.683703408E0,8.995596229E0
9.073991375E0,-5.385301988E0,-7.036367408E0,1.744641043E0,9.030820349E0
9.083962375E0,-5.613883097E0,-6.998997853E0,1.844603873E0,9.159924553E0
9.093933375E0,-5.884032646E0,-7.026683249E0,1.941305125E0,9.368286036E0
9.103904375E0,-6.142136346E0,-7.032567887E0,2.036910317E0,9.556770041E0
9.113875375E0,-6.357963508E0,-7.041944482E0,2.101882238E0,9.717540378E0
9.123846375E0,-6.506008576E0,-7.135639096E0,2.024310737E0,9.866272187E0
9.133817375E0,-6.561574082E0,-7.269237449E0,1.869703338E0,9.969546534E0
9.143788375E0,-6.445279979E0,-7.415552326E0,1.601545643E0,9.954747549E0
9.153759375E0,-6.168176921E0,-7.638657517E0,1.323480425E0,9.906921602E0
9.163730375E0,-5.702426314E0,-8.018231860E0,1.070311483E0,9.897235710E0
9.173701375E0,-5.248630924E0,-8.267220336E0,8.891167948E-1,9.832882961E0
9.183672375E0,-4.885653318E0,-8.274033512E0,8.511508235E-1,9.646434399E0
9.193643375E0,-4.510513503E0,-8.335352678E0,8.577292335E-1,9.516224869E0
9.203614375E0,-4.037737466E0,-8.371375034E0,9.531385437E-1,9.343003634E0
9.213585375E0,-3.490398905E0,-8.328818414E0,8.821989539E-1,9.073608747E0
9.223556375E0,-2.838022131E0,-8.467869295E0,5.005418327E-1,8.944815378E0
9.233527375E0,-2.060383379E0,-8.708048356E0,-2.842974722E-2,8.948524688E0
9.243498375E0,-1.403993077E0,-8.822550287E0,-4.878250158E-1,8.946874503E0
9.253469375E0,-8.358892983E-1,-8.935391609E0,-8.652104536E-1,9.016014821E0
9.263440375E0,-2.363567358E-1,-9.202997035E0,-1.138151756E0,9.276120328E0
9.273411375E0,3.562515539E-1,-9.445108016E0,-1.012926616E0,9.505945557E0
9.283382375E0,7.495083815E-1,-9.616275898E0,-7.836888653E-1,9.677225491E0
9.293353375E0,1.108196470E0,-9.823108288E0,-6.490888846E-1,9.906708446E0
9.303324375E0,1.340542601E0,-9.774996813E0,-2.634246665E-1,9.870005558E0
9.313295375E0,1.399541591E0,-9.393382961E0,2.825143638E-1,9.501272256E0
9.323266375E0,1.618018126E0,-9.049733326E0,7.480699664E-1,9.223625351E0
9.333237375E0,2.150839806E0,-8.840386634E0,1.093571414E0,9.163757207E0
9.343208375E0,3.030291445E0,-8.693322144E0,1.506010325E0,9.328696760E0
9.353179375E0,4.220122063E0,-8.604637424E0,1.773245915E0,9.746466872E0
9.363150375E0,5.451790093E0,-8.322356656E0,1.748925591E0,1.010160266E1
9.373121375E0,6.663796860E0,-7.698043009E0,1.450386640E0,1.028443854E1
9.383092375E0,7.736208955E0,-6.932969924E0,9.614535767E-1,1.043261204E1
9.393063375E0,8.582140262E0,-6.005462358E0,4.342399621E-1,1.048366701E1
9.403034375E0,9.182514238E0,-4.906898591E0,-8.626426488E-2,1.041170798E1
9.413004375E0,9.309791166E0,-3.824198905E0,-3.273069593E-1,1.006994730E1
9.422975375E0,9.039429363E0,-2.853558767E0,-1.927020085E-1,9.481097769E0
9.432946375E0,8.605440246E0,-1.890120646E0,1.868325734E-1,8.812551520E0
9.442917375E0,8.277878641E0,-9.745297050E-1,7.411418930E-1,8.367931300E0
9.452888375E0,8.107650406E0,-2.434418070E-1,1.493180365E0,8.247596415E0
9.462859375E0,7.889267426E0,3.404833674E-1,2.171781901E0,8.189817218E0
9.472830375E0,7.608035649E0,8.745154202E-1,2.670713410E0,8.110468160E0
9.482801375E0,7.394708172E0,1.324663317E0,2.775999545E0,8.008908498E0
9.492772375E0,7.285862837E0,1.699078077E0,2.693345643E0,7.951400779E0
9.502743375E0,7.093002954E0,1.914984761E0,2.507040196E0,7.762931668E0
9.512714375E0,6.939404785E0,1.985207482E0,2.200598149E0,7.545794838E0
9.522685375E0,6.805217618E0,2.200213695E0,1.834920299E0,7.383688755E0
9.532656375E0,6.681677061E0,2.658743575E0,1.593011047E0,7.365555644E0
9.542627375E0,6.446624254E0,3.250938467E0,1.515067078E0,7.377194144E0
9.552598375E0,6.125426758E0,3.602632116E0,1.487350106E0,7.260304502E0
9.562569375E0,5.904057605E0,3.807060131E0,1.561005435E0,7.196411676E0
9.572540375E0,5.794119426E0,3.956860533E0,1.779554183E0,7.238465189E0
9.582511375E0,5.775056334E0,4.202155908E0,1.936677346E0,7.400007370E0
9.592482375E0,5.766753872E0,4.463275602E0,2.013481986E0,7.565076935E0
9.602453375E0,5.723918924E0,4.670287501E0,2.007997882E0,7.655513614E0
9.612424375E0,5.727665820E0,4.913182594E0,1.945906299E0,7.793078356E0
9.622395375E0,5.804858422E0,5.318136776E0,2.024688174E0,8.128857378E0
9.632366375E0,5.973965746E0,5.771950877E0,2.208687187E0,8.595462917E0
9.642337375E0,6.098270534E0,6.053263931E0,2.364140678E0,8.911793808E0
9.652308375E0,6.200838298E0,6.337874229E0,2.445121106E0,9.197698765E0
9.662279375E0,6.343118012E0,6.584055457E0,2.447650612E0,9.464455921E0
9.672250375E0,6.434168515E0,6.856602949E0,2.352877186E0,9.692654927E0
9.682221375E0,6.583951961E0,7.104507351E0,2.082036788E0,9.907437878E0
9.692192375E0,6.676132146E0,7.400920254E0,1.752106768E0,1.011999205E1
9.702163375E0,6.680205317E0,7.687958316E0,1.338668860E0,1.027238436E1
9.712134375E0,6.500401096E0,7.873532569E0,9.711140540E-1,1.025625624E1
9.722105375E0,6.191443577E0,7.887920812E0,7.112941960E-1,1.005282088E1
9.732076375E0,5.833859442E0,7.745392007E0,5.615703920E-1,9.712897335E0
9.742047375E0,5.526888807E0,7.464019312E0,5.722588098E-1,9.305136448E0
9.752018375E0,5.286597480E0,7.170715374E0,6.925240490E-1,8.935707104E0
9.761989375E0,5.118412846E0,6.908509852E0,7.652555180E-1,8.631991337E0
9.771960375E0,5.119715021E0,6.679373258E0,6.504369602E-1,8.440887231E0
9.781931375E0,5.338617818E0,6.479763933E0,4.416325969E-1,8.407331336E0
9.791902375E0,5.686228942E0,6.223723716E0,1.624286342E-1,8.431744750E0
9.801873375E0,6.101259046E0,5.926058339E0,-1.413681328E-1,8.506674693E0
9.811844375E0,6.461330001E0,5.484648521E0,-4.215500423E-1,8.485744471E0
9.821815375E0,6.771268099E0,4.699475632E0,-5.168011853E-1,8.258463922E0
9.831786375E0,6.963608165E0,3.740260370E0,-3.705506274E-1,7.913197462E0
9.841757375E0,7.159134378E0,2.828173081E0,-5.271820396E-2,7.697697528E0
9.851728375E0,7.410217912E0,1.963420756E0,2.024528253E-1,7.668594246E0
9.861698375E0,7.817058406E0,1.224690548E0,3.872409198E-1,7.921882642E0
9.871669375E0,8.224238623E0,7.120885402E-1,5.492263350E-1,8.273259369E0
9.881640375E0,8.404633997E0,6.401712960E-1,6.504699969E-1,8.454040639E0
9.891611375E0,8.284945586E0,5.882550377E-1,5.739115253E-1,8.325607593E0
9.901582375E0,8.083358148E0,3.171623325E-1,3.317409030E-1,8.096377148E0
9.911553375E0,7.868118047E0,-4.321501672E-2,1.992722324E-1,7.870759720E0
9.921524125E0,7.755181416E0,-3.458657295E-1,1.604344413E-1,7.764547708E0
9.931495125E0,7.603821561E0,-4.746781361E-1,2.562451628E-1,7.622931408E0
9.941466125E0,7.275706809E0,-2.760166454E-1,3.533261919E-1,7.289508499E0
9.951437125E0,6.775107965E0,1.415950048E-1,4.065782467E-1,6.788773303E0
9.961408125E0,6.309766663E0,3.386344779E-1,2.683524075E-1,6.324542803E0
9.971379125E0,6.010509675E0,1.608767831E-1,-1.930607352E-1,6.015760994E0
9.981350125E0,5.838016228E0,-3.916909432E-1,-7.185532218E-1,5.895097455E0
9.991321125E0,5.708740137E0,-1.061896462E0,-1.169172112E0,5.923200273E0
1.000129213E1,5.519438869E0,-1.626554477E0,-1.587126701E0,5.968991210E0
1.001126312E1,5.228014811E0,-2.177196130E0,-1.877098897E0,5.966223438E0
1.002123412E1,4.910962406E0,-2.669046954E0,-1.931793459E0,5.913813437E0
1.003120512E1,4.713211911E0,-3.294158161E0,-1.881263283E0,6.050206282E0
1.004117612E1,4.761692346E0,-4.158575440E0,-1.688829955E0,6.543669483E0
1.005114712E1,4.947137375E0,-4.905882930E0,-1.358301179E0,7.098368659E0
1.006111812E1,5.146375986E0,-5.427405449E0,-7.305145785E-1,7.515022771E0
1.007108913E1,5.174771234E0,-5.728348775E0,-1.825252220E-1,7.721758380E0
1.008106012E1,5.018177537E0,-5.974872065E0,1.244948226E-1,7.803633829E0
1.009103112E1,4.730964643E0,-6.235991759E0,3.361882952E-1,7.834707540E0
1.010100212E1,4.484149577E0,-6.620390639E0,5.443781161E-1,8.014581535E0
1.011097313E1,4.202721918E0,-7.093091247E0,7.763599652E-1,8.281156306E0
1.012094412E1,3.769112871E0,-7.495709467E0,1.042584863E0,8.454516866E0
1.013091512E1,3.239830511E0,-7.787334670E0,1.388827446E0,8.547977812E0
1.014088612E1,2.536835561E0,-7.959785432E0,1.725888146E0,8.530674573E0
1.015085713E1,1.683801057E0,-8.111874434E0,1.900875137E0,8.500059948E0
1.016082812E1,8.851667082E-1,-8.242954976E0,2.074086914E0,8.545856503E0
1.017079912E1,2.806868166E-1,-8.380515987E0,2.300494612E0,8.695062320E0
1.018077012E1,-2.505438352E-1,-8.535138003E0,2.461597098E0,8.886552381E0
1.019074112E1,-7.713489014E-1,-8.593966840E0,2.572231096E0,9.003755771E0
1.020071212E1,-1.310469786E0,-8.503967081E0,2.605628638E0,8.990221787E0
1.021068312E1,-1.825986046E0,-8.326097705E0,2.511900987E0,8.886381412E0
1.022065413E1,-2.317645081E0,-8.125936988E0,2.405838634E0,8.785806177E0
1.023062512E1,-2.769546558E0,-7.947391673E0,2.219450449E0,8.703871716E0
1.024059612E1,-3.127145310E0,-7.837636512E0,2.038286167E0,8.681140154E0
1.025056712E1,-3.420708865E0,-7.792407714E0,1.920846302E0,8.724248829E0
1.026053712E1,-3.704430386E0,-7.747967706E0,1.905069345E0,8.796766296E0
1.027050812E1,-3.987773593E0,-7.706658297E0,1.960799450E0,8.896047145E0
1.028047912E1,-4.127819670E0,-7.777238283E0,2.119370968E0,9.056272072E0
1.029045013E1,-4.235396159E0,-7.932770711E0,2.387472822E0,9.304163490E0
1.030042112E1,-4.535557128E0,-8.057068482E0,2.647295312E0,9.617473860E0
1.031039212E1,-4.898439424E0,-8.178747286E0,2.792294273E0,9.933958086E0
1.032036312E1,-5.252823962E0,-8.311199584E0,2.832809046E0,1.023195999E1
1.033033412E1,-5.595105933E0,-8.361478622E0,2.819472716E0,1.044839517E1
1.034030512E1,-5.881666278E0,-8.382830315E0,2.837576865E0,1.062627332E1
1.035027612E1,-6.054168495E0,-8.356279278E0,2.831877877E0,1.070046223E1
1.036024713E1,-6.127371542E0,-8.260183212E0,2.771962627E0,1.065171749E1
1.037021812E1,-6.149555878E0,-8.086430275E0,2.562611549E0,1.047732647E1
1.038018912E1,-6.173652254E0,-7.922518787E0,2.342544571E0,1.031347668E1
1.039016012E1,-6.182706667E0,-7.879499652E0,2.077466605E0,1.022879485E1
1.040013113E1,-6.148508642E0,-7.992798811E0,1.869070962E0,1.025584797E1
1.041010212E1,-6.040940339E0,-8.180331881E0,1.793805602E0,1.032610906E1
1.042007312E1,-5.949335520E0,-8.340468407E0,1.935458202E0,1.042612127E1
1.043004412E1,-5.901536871E0,-8.331927379E0,2.129900342E0,1.043003484E1
1.044001513E1,-5.788160529E0,-8.285326824E0,2.245641298E0,1.035337374E1
1.044998612E1,-5.607404966E0,-8.547276238E0,2.154924086E0,1.044713450E1
1.045995712E1,-5.062705838E0,-8.935619066E0,1.770445683E0,1.042164845E1
1.046992812E1,-4.213256262E0,-9.067711760E0,1.320060974E0,1.008550871E1
1.047989912E1,-3.376447781E0,-9.148295163E0,1.083200793E0,9.811474301E0
1.048987012E1,-2.549452098E0,-9.431375830E0,1.146714419E0,9.836946172E0
1.049984112E1,-1.756505921E0,-9.605974274E0,1.225956470E0,9.841901445E0
1.050981213E1,-1.176193741E0,-9.516040589E0,1.173333283E0,9.659977805E0
1.051978312E1,-7.741082025E-1,-9.441208507E0,8.671040744E-1,9.512493420E0
1.052975412E1,-4.369086313E-1,-9.443846186E0,3.881115702E-1,9.461910512E0
1.053972512E1,-8.575526476E-2,-9.730180829E0,4.635087848E-3,9.730559820E0
1.054969613E1,3.639733869E-1,-1.027061558E1,-3.988417956E-1,1.028479926E1
1.055966712E1,8.671058285E-1,-1.083071803E1,-7.394871309E-1,1.089050811E1
1.056963812E1,1.671740590E0,-1.157002244E1,-7.625441641E-1,1.171501641E1
1.057960912E1,3.038962281E0,-1.219342567E1,-4.550022554E-1,1.257465500E1
1.058958013E1,4.811307725E0,-1.214797410E1,2.290734440E-1,1.306806915E1
1.059955112E1,7.114239457E0,-1.167363393E1,8.004089785E-1,1.369404201E1
1.060952212E1,9.369470773E0,-1.072374439E1,1.163966044E0,1.428777426E1
1.061949312E1,1.100666543E1,-9.633927473E0,1.346331344E0,1.468917460E1
1.062946412E1,1.193112893E1,-8.649066907E0,1.310032999E0,1.479440375E1
1.063943412E1,1.223578524E1,-7.581865851E0,1.072668495E0,1.443432534E1
1.064940513E1,1.208033584E1,-6.440423867E0,7.594281828E-1,1.371095565E1
1.065937612E1,1.166792471E1,-5.308575994E0,4.445831019E-1,1.282649992E1
1.066934712E1,1.123267201E1,-4.262988585E0,3.595090377E-1,1.201978531E1
1.067931812E1,1.086418048E1,-3.303547035E0,4.820886049E-1,1.136557301E1
1.068928913E1,1.051182492E1,-2.309191761E0,6.818236443E-1,1.078404902E1
1.069926012E1,1.013299435E1,-1.277179248E0,9.786531615E-1,1.025994753E1
1.070923112E1,9.728813750E0,-3.785580969E-1,1.402243882E0,9.836636168E0
1.071920212E1,9.317262154E0,3.641318464E-1,1.864925871E0,9.509043829E0
1.072917313E1,8.982749378E0,9.801249057E-1,2.266615553E0,9.316006509E0
1.073914412E1,8.821622919E0,1.637941344E0,2.497751310E0,9.313573126E0
1.074911512E1,8.489484698E0,2.215124679E0,2.621334551E0,9.156938495E0
1.075908612E1,7.947972302E0,2.301223176E0,2.708272708E0,8.706355889E0
1.076905712E1,7.380914006E0,2.274216056E0,2.702922213E0,8.182648637E0
1.077902812E1,6.758908839E0,2.451986030E0,2.603703442E0,7.646852673E0
1.078899912E1,6.218661196E0,2.688434567E0,2.395951285E0,7.186098389E0
1.079897013E1,5.822902345E0,2.871092228E0,2.091401397E0,6.820800694E0
1.080894112E1,5.662887442E0,2.965307829E0,1.806429156E0,6.642629825E0
1.081891212E1,5.709904903E0,3.178628874E0,1.760832276E0,6.768103562E0
1.082888312E1,5.692847990E0,3.456716604E0,1.799443487E0,6.898942294E0
1.083885413E1,5.656027488E0,3.657475491E0,1.806071891E0,6.973497658E0
1.084882512E1,5.631384398E0,3.903554977E0,1.914304145E0,7.114407358E0
1.085879612E1,5.497173257E0,4.149558449E0,2.290245613E0,7.258303803E0
1.086876712E1,5.447704643E0,4.233597556E0,2.667471129E0,7.397042407E0
1.087873813E1,5.402863516E0,4.333360995E0,3.041022548E0,7.564176744E0
1.088870912E1,5.323772907E0,4.632135589E0,3.323394824E0,7.800268664E0
1.089868012E1,5.363916382E0,4.993422180E0,3.397981907E0,8.077879985E0
1.090865112E1,5.522061346E0,5.329950491E0,3.470260217E0,8.422840359E0
1.091862212E1,5.816011401E0,5.573985790E0,3.510911522E0,8.787593864E0
1.092859354E1,6.211605361E0,5.796133207E0,3.524853623E0,9.198032093E0
1.093856454E1,6.922200522E0,6.147164367E0,3.556382102E0,9.917275003E0
1.094853554E1,7.604879907E0,6.459634309E0,3.681393526E0,1.063549398E1
1.095850654E1,8.025821546E0,6.701036607E0,3.814799505E0,1.112970792E1
1.096847754E1,8.061245733E0,6.960726072E0,3.806414598E0,1.131035730E1
1.097844854E1,7.775229764E0,7.287308854E0,3.601377304E0,1.124851042E1
1.098841954E1,7.360355780E0,7.539265961E0,3.316356823E0,1.104597624E1
1.099839054E1,7.048340167E0,7.601688496E0,2.930932341E0,1.077288873E1
1.100836154E1,6.809904746E0,7.408236875E0,2.554921291E0,1.038192656E1
1.101833254E1,6.733645359E0,7.118754677E0,2.207730290E0,1.004453687E1
1.102830254E1,6.870711111E0,6.814063286E0,1.846883994E0,9.851350675E0
1.103827354E1,7.189998322E0,6.719602686E0,1.536672247E0,9.960446663E0
1.104824454E1,7.428031454E0,6.782038085E0,1.388133089E0,1.015374834E1
1.105821554E1,7.505090740E0,6.712186078E0,1.240714257E0,1.014491009E1
1.106818654E1,7.518649263E0,6.472793468E0,1.096794107E0,9.981487832E0
1.107815754E1,7.428082325E0,5.971235681E0,1.021032903E0,9.585122366E0
1.108812854E1,7.337477964E0,5.394923581E0,1.019852058E0,9.164272014E0
1.109809954E1,7.325195888E0,4.743387637E0,1.017424587E0,8.785975976E0
1.110807054E1,7.506353738E0,3.899274815E0,1.048711284E0,8.523466776E0
1.111804154E1,7.852404240E0,3.083087125E0,1.154631841E0,8.514625843E0
1.112801254E1,8.129789134E0,2.485719786E0,1.266194377E0,8.595087109E0
1.113798354E1,8.461026884E0,1.994493445E0,1.169488446E0,8.771241831E0
1.114795454E1,8.887060279E0,1.583248243E0,9.655068666E-1,9.078475583E0
1.115792554E1,9.163285085E0,1.191637407E0,7.904628646E-1,9.274191329E0
1.116789654E1,9.379276553E0,7.324450368E-1,5.251013079E-1,9.422475035E0
1.117786754E1,9.396881935E0,6.320571148E-1,3.337125841E-1,9.424025169E0
1.118783854E1,9.121081052E0,6.785214293E-1,2.968496901E-1,9.151099968E0
1.119780954E1,8.804883510E0,6.203802252E-1,3.241547254E-1,8.832662200E0
1.120778054E1,8.643664080E0,3.373451668E-1,4.361537558E-1,8.661233202E0
1.121775154E1,8.639910752E0,-1.058878130E-1,6.128668454E-1,8.662267359E0
1.122772254E1,8.719696594E0,-6.450350100E-1,7.406442949E-1,8.774835203E0
1.123769354E1,8.859243904E0,-1.372716905E0,6.731665492E-1,8.990200635E0
1.124766454E1,8.990605697E0,-2.191922927E0,5.181507227E-1,9.268440920E0
1.125763554E1,9.057522402E0,-2.804794743E0,3.479642951E-1,9.488238233E0
1.126760654E1,9.069341379E0,-3.229844636E0,-2.106488675E-2,9.627320144E0
1.127757754E1,8.928379043E0,-3.846210163E0,-3.446848843E-1,9.727697191E0
1.128754854E1,8.589679661E0,-4.809447725E0,-4.659257314E-1,9.855479232E0
1.129751954E1,8.117003612E0,-5.910193089E0,-2.874722180E-1,1.004483799E1
1.130749054E1,7.430188492E0,-6.932836023E0,1.311492464E-1,1.016312533E1
1.131746154E1,6.600037651E0,-7.824360409E0,6.232456532E-1,1.025522052E1
1.132743254E1,5.549698210E0,-8.417514828E0,1.376700028E0,1.017590335E1
1.133740354E1,4.554205068E0,-8.861974554E0,1.962426145E0,1.015512152E1
1.134737454E1,3.751490532E0,-9.080701350E0,2.373124632E0,1.010764754E1
1.135734554E1,3.046467767E0,-9.146394233E0,2.627365662E0,9.992024001E0
1.136731654E1,2.370704470E0,-9.155165057E0,2.664032966E0,9.825190000E0
1.137728654E1,1.683667740E0,-9.058445678E0,2.598160574E0,9.572910400E0
1.138725754E1,1.055370970E0,-8.951655639E0,2.528803241E0,9.361666112E0
1.139722854E1,5.325977308E-1,-8.851110427E0,2.402888714E0,9.186930408E0
1.140719954E1,1.152000886E-1,-8.639731827E0,2.252146910E0,8.929188251E0
1.141717054E1,-1.355133158E-1,-8.456543239E0,2.026797265E0,8.697091155E0
1.142714154E1,-2.159370893E-1,-8.456629193E0,1.681477666E0,8.624881058E0
1.143711254E1,-2.434166640E-1,-8.468378003E0,1.369830427E0,8.581906145E0
1.144708354E1,-3.040663236E-1,-8.421389778E0,1.215334710E0,8.514064868E0
1.145705454E1,-4.527230108E-1,-8.441690142E0,1.122842284E0,8.528063401E0
1.146702554E1,-6.694857270E-1,-8.520391910E0,1.011383244E0,8.606287556E0
1.147699654E1,-1.035835422E0,-8.550274690E0,9.334533074E-1,8.663226153E0
1.148696754E1,-1.445035853E0,-8.576887123E0,7.900421575E-1,8.733572462E0
1.149693854E1,-1.986333071E0,-8.547223029E0,6.024178711E-1,8.795649371E0
1.150690954E1,-2.554747337E0,-8.382268982E0,5.278152931E-1,8.778824308E0
1.151688054E1,-3.057935327E0,-8.164824480E0,7.078358603E-1,8.747362966E0
1.152685154E1,-3.476157426E0,-8.023342327E0,1.027288547E0,8.804147563E0
1.153682254E1,-3.896317293E0,-7.906662308E0,1.301274747E0,8.910101754E0
1.154679354E1,-4.328331220E0,-7.846448851E0,1.415240488E0,9.072161614E0
1.155676454E1,-4.726315522E0,-7.791306683E0,1.435576227E0,9.225150262E0
1.156673554E1,-5.037685018E0,-7.741340472E0,1.460677739E0,9.350946588E0
1.157670654E1,-5.320628859E0,-7.660358874E0,1.522391300E0,9.450283848E0
1.158667754E1,-5.514818984E0,-7.592376806E0,1.590618074E0,9.517745523E0
1.159664854E1,-5.678588970E0,-7.572448325E0,1.588825318E0,9.597536778E0
1.160661954E1,-5.785025836E0,-7.513233572E0,1.612485199E0,9.618487987E0
1.161659054E1,-5.810899181E0,-7.466752301E0,1.648684434E0,9.604014763E0
1.162656154E1,-5.734669615E0,-7.400027969E0,1.632763343E0,9.503302882E0
1.163653254E1,-5.645251654E0,-7.318364586E0,1.631845622E0,9.385640446E0
1.164650354E1,-5.597342493E0,-7.329506455E0,1.429916707E0,9.332554294E0
1.165647454E1,-5.617115437E0,-7.470560592E0,1.091514072E0,9.410242525E0
1.166644554E1,-5.501208420E0,-7.743239647E0,6.652564359E-1,9.521744611E0
1.167641654E1,-5.312202437E0,-8.184271150E0,3.453239849E-1,9.763249339E0
1.168638754E1,-5.235548363E0,-8.490146602E0,1.448937115E-1,9.975697980E0
1.169635854E1,-5.120190400E0,-8.652844208E0,5.159144551E-2,1.005438831E1
1.170632954E1,-4.936621158E0,-8.695858666E0,7.930944040E-2,9.999723815E0
1.171629954E1,-4.575194233E0,-8.595069040E0,1.302095988E-1,9.737790746E0
1.172627054E1,-3.995804744E0,-8.501156909E0,1.974464393E-1,9.395483460E0
1.173624154E1,-3.359960387E0,-8.606047187E0,2.235285294E-1,9.241393131E0
1.174621254E1,-2.768703389E0,-8.858089664E0,2.841201554E-1,9.285052246E0
1.175618354E1,-2.403972788E0,-9.210164552E0,2.548196116E-1,9.522139952E0
1.176615454E1,-2.053274919E0,-9.466163839E0,6.854837090E-2,9.686531609E0
1.177612554E1,-1.651114537E0,-9.584528441E0,-7.380852610E-2,9.725986446E0
1.178609654E1,-1.437620999E0,-9.423068106E0,-1.038348556E-1,9.532667430E0
1.179606754E1,-1.290396295E0,-8.914728134E0,-1.782286879E-1,9.009398746E0
1.180603854E1,-9.389242548E-1,-8.369314476E0,-4.411909859E-1,8.433365463E0
1.181600954E1,-3.310348517E-1,-7.891292902E0,-7.190354709E-1,7.930895267E0
1.182598054E1,4.644975489E-1,-7.565784253E0,-1.123185661E0,7.662792922E0
1.183595154E1,1.325504732E0,-7.419916688E0,-1.567220148E0,7.698591134E0
1.184592254E1,2.197323416E0,-7.632089340E0,-1.814823419E0,8.146815447E0
1.185589354E1,3.084042560E0,-8.074238831E0,-1.824994065E0,8.833756537E0
1.186586454E1,3.984662874E0,-8.522056612E0,-1.837218839E0,9.585320036E0
1.187583554E1,4.700412941E0,-8.646456710E0,-1.492097460E0,9.953966560E0
1.188580654E1,5.282779832E0,-8.455375550E0,-1.149153292E0,1.003601972E1
1.189577754E1,5.746372817E0,-7.970638449E0,-8.144095516E-1,9.859773869E0
1.190574854E1,6.148688736E0,-7.381936099E0,-6.262531686E-1,9.627644923E0
1.191571954E1,6.487804440E0,-6.800679009E0,-4.657760426E-1,9.410514797E0
1.192569013E1,6.764997545E0,-6.060820287E0,-8.089827508E-2,9.083241650E0
1.193566112E1,6.884666660E0,-5.119894531E0,4.779186630E-1,8.593041445E0
1.194563212E1,6.914098036E0,-4.194263921E0,9.859344068E-1,8.146696762E0
1.195560312E1,6.765923744E0,-3.389104080E0,1.421369540E0,7.699613103E0
1.196557413E1,6.467406428E0,-2.620674693E0,1.895778412E0,7.231131138E0
1.197554512E1,6.216221153E0,-1.823475251E0,2.314006651E0,6.879032940E0
1.198551612E1,5.982624888E0,-1.073902550E0,2.514265601E0,6.577735077E0
1.199548712E1,5.794822261E0,-2.519319642E-1,2.445390955E0,6.294709817E0
1.200545813E1,5.765590861E0,5.643878728E-1,2.101325583E0,6.162478467E0
1.201542912E1,5.872593738E0,1.321561369E0,1.592435389E0,6.226534520E0
1.202539912E1,5.988084433E0,1.975746687E0,9.975308973E-1,6.384026789E0
1.203537012E1,6.139432009E0,2.417873374E0,2.206540382E-1,6.602077343E0
1.204534112E1,6.226252636E0,2.632944490E0,-5.641130537E-1,6.783571487E0
1.205531212E1,6.273733782E0,2.735390632E0,-1.102340776E0,6.932333854E0
1.206528313E1,6.388259102E0,2.749380096E0,-1.311180515E0,7.077297479E0
1.207525412E1,6.474168148E0,2.661439726E0,-1.142010334E0,7.092411595E0
1.208522512E1,6.553980303E0,2.626936476E0,-6.299357450E-1,7.088883699E0
1.209519612E1,6.694457905E0,2.803757447E0,3.244122952E-2,7.257952528E0
1.210516713E1,6.730298998E0,3.081160467E0,5.867315456E-1,7.425276313E0
1.211513812E1,6.795090240E0,3.374858508E0,8.409684822E-1,7.633488672E0
1.212510912E1,6.665587277E0,3.403895196E0,7.322228426E-1,7.520153360E0
1.213508012E1,6.464036093E0,3.010535458E0,3.769176605E-1,7.140668965E0
1.214505113E1,6.647509441E0,2.282484604E0,1.711129189E-1,7.030533220E0
1.215502212E1,7.087032362E0,1.860451874E0,6.201007283E-1,7.353355274E0
1.216499312E1,7.390287677E0,2.228786699E0,1.490498247E0,7.861642775E0
1.217496412E1,7.521310331E0,3.335889739E0,2.122061857E0,8.497141636E0
1.218493512E1,7.818680423E0,4.649030533E0,2.392024587E0,9.405691367E0
1.219490612E1,8.499776967E0,5.699577550E0,2.517634766E0,1.053896947E1
1.220487712E1,9.501044235E0,6.812123179E0,2.734825791E0,1.200642061E1
1.221484813E1,1.044772073E1,7.900261946E0,3.104531204E0,1.346131945E1
1.222481912E1,1.100494985E1,8.714893107E0,3.532725145E0,1.447544231E1
1.223479012E1,1.107606954E1,9.276865495E0,3.877093695E0,1.495899079E1
1.224476112E1,1.100868856E1,9.311718408E0,3.859601164E0,1.492634734E1
1.225473213E1,1.084971213E1,8.803618172E0,3.602252924E0,1.442900455E1
1.226470312E1,1.054314144E1,8.102979065E0,3.352939343E0,1.371343514E1
1.227467412E1,1.013817264E1,7.473858422E0,3.091179964E0,1.296905925E1
1.228464512E1,9.789560473E0,6.936647823E0,2.812306369E0,1.232321567E1
1.229461613E1,9.641982597E0,6.405035933E0,2.618589576E0,1.186799583E1
1.230458612E1,9.801162518E0,5.795940834E0,2.472641904E0,1.165202450E1
1.231455712E1,1.009578617E1,5.052305980E0,2.456965519E0,1.155367360E1
1.232452812E1,1.027933612E1,4.223900533E0,2.467871745E0,1.138404488E1
1.233449912E1,1.029605565E1,3.326169913E0,2.236004794E0,1.104861465E1
1.234447012E1,1.029568377E1,2.357074610E0,1.961559588E0,1.074265428E1
1.235444113E1,1.030459726E1,1.455528097E0,1.666015581E0,1.053939726E1
1.236441212E1,1.028661356E1,7.401370490E-1,1.439317276E0,1.041315782E1
1.237438312E1,1.016107151E1,2.082860076E-1,1.308865018E0,1.024714032E1
1.238435412E1,1.004060483E1,-7.973204792E-2,1.191062918E0,1.011131710E1
1.239432513E1,9.951321355E0,-3.408458948E-1,1.038557594E0,1.001117248E1
1.240429612E1,9.798634182E0,-8.023607790E-1,8.564323211E-1,9.868662066E0
1.241426712E1,9.624656128E0,-1.425327812E0,5.808983633E-1,9.746948643E0
1.242423812E1,9.443874838E0,-2.067215851E0,1.708559337E-1,9.668988834E0
1.243420913E1,9.243717629E0,-2.598549998E0,-2.658538923E-1,9.605699141E0
1.244418012E1,8.924522220E0,-2.991981073E0,-4.914687082E-1,9.425528584E0
1.245415112E1,8.466777620E0,-3.224716628E0,-5.740363634E-1,9.078250842E0
1.246412213E1,7.946918049E0,-3.368383301E0,-4.847330081E-1,8.644910562E0
1.247409312E1,7.464329799E0,-3.505206978E0,-3.095021877E-1,8.252180737E0
1.248406412E1,7.071072387E0,-3.747774042E0,-1.517548344E-1,8.004305373E0
1.249403512E1,6.711913013E0,-4.169044295E0,-4.976565242E-2,7.901467158E0
1.250400613E1,6.303280347E0,-4.689386262E0,1.130725792E-1,7.857128741E0
1.251397712E1,5.776276063E0,-5.079846951E0,2.368976033E-1,7.695864517E0
1.252394812E1,5.133955330E0,-5.339703062E0,4.096661612E-1,7.418743322E0
1.253391912E1,4.478419306E0,-5.631701902E0,6.467976531E-1,7.224309863E0
1.254389013E1,3.849672884E0,-5.937606590E0,8.736924246E-1,7.130111625E0
1.255386112E1,3.314462618E0,-6.221362025E0,1.211401581E0,7.152517157E0
1.256383212E1,2.912096413E0,-6.505859472E0,1.621145217E0,7.309899097E0
1.257380312E1,2.605428663E0,-6.757061119E0,2.025394518E0,7.519864124E0
1.258377312E1,2.334868054E0,-7.027860879E0,2.332518351E0,7.764217876E0
1.259374412E1,2.091240306E0,-7.299788566E0,2.527310447E0,8.002968026E0
1.260371513E1,1.904429952E0,-7.551110666E0,2.658999683E0,8.228997815E0
1.261368612E1,1.761084291E0,-7.793856069E0,2.737015281E0,8.446115258E0
1.262365712E1,1.531144874E0,-7.915477570E0,2.851013474E0,8.551459970E0
1.263362812E1,1.173974138E0,-7.891836108E0,2.892293063E0,8.486733859E0
1.264359913E1,7.683522034E-1,-7.778680206E0,2.898004623E0,8.336465777E0
1.265357012E1,4.590765953E-1,-7.780721469E0,2.931084369E0,8.327162390E0
1.266354112E1,2.355907506E-1,-7.869648848E0,2.973517028E0,8.415977632E0
1.267351212E1,5.546025574E-2,-7.906566414E0,3.100708294E0,8.493012435E0
1.268348313E1,-1.180114299E-1,-7.941873071E0,3.317184497E0,8.607612187E0
1.269345412E1,-3.865687823E-1,-7.936656770E0,3.464084095E0,8.668323640E0
1.270342512E1,-8.083606070E-1,-7.913218206E0,3.460980978E0,8.674725274E0
1.271339612E1,-1.270419282E0,-7.899483681E0,3.429872621E0,8.705161330E0
1.272336712E1,-1.658422387E0,-7.953452897E0,3.466165704E0,8.833010952E0
1.273333812E1,-1.951029337E0,-8.056906514E0,3.589050788E0,9.033357273E0
1.274330912E1,-2.213138965E0,-8.166832414E0,3.765044963E0,9.261247180E0
1.275328013E1,-2.522450241E0,-8.223635775E0,3.915681517E0,9.451111169E0
1.276325112E1,-2.901307715E0,-8.164111120E0,4.147739380E0,9.605937685E0
1.277322212E1,-3.284650589E0,-8.092759886E0,4.274219332E0,9.723715492E0
1.278319312E1,-3.595334791E0,-7.994882759E0,4.227388397E0,9.732183478E0
1.279316413E1,-3.878585027E0,-7.915459444E0,4.109517885E0,9.725536349E0
1.280313512E1,-4.170456982E0,-7.825692989E0,3.922318692E0,9.696327455E0
1.281310612E1,-4.414839022E0,-7.715841933E0,3.698031778E0,9.628107777E0
1.282307613E1,-4.655671216E0,-7.742431562E0,3.569871921E0,9.714139514E0
1.283304712E1,-4.864017450E0,-7.786188616E0,3.452592270E0,9.808353190E0
1.284301812E1,-5.134838260E0,-7.863196446E0,3.474832740E0,1.001353508E1
1.285298912E1,-5.448249019E0,-7.888282170E0,3.534231387E0,1.021759289E1
1.286296012E1,-5.732110289E0,-7.873620862E0,3.565769222E0,1.037138872E1
1.287293112E1,-5.904285647E0,-8.072255455E0,3.364124482E0,1.055174065E1
1.288290212E1,-5.929711094E0,-8.443891618E0,3.015997634E0,1.074974516E1
1.289287313E1,-5.954336058E0,-8.891200107E0,2.510669563E0,1.099140659E1
1.290284412E1,-5.999571873E0,-9.488803673E0,1.787218129E0,1.136777931E1
1.291281512E1,-6.181467057E0,-1.003277190E1,1.131758995E0,1.183840890E1
1.292278612E1,-6.355214732E0,-1.035945584E1,5.366600838E-1,1.216532300E1
1.293275688E1,-6.179829252E0,-1.044292952E1,4.492123425E-3,1.213445865E1
1.294272787E1,-5.777015736E0,-1.014508288E1,-3.393627486E-1,1.167954556E1
1.295269887E1,-5.262255521E0,-9.694107016E0,-5.540844941E-1,1.104418642E1
1.296266987E1,-4.754072254E0,-9.478647645E0,-8.240644741E-1,1.063602588E1
1.297264087E1,-4.138946922E0,-9.419601876E0,-1.110033958E0,1.034852436E1
1.298261187E1,-3.491174830E0,-9.550241538E0,-1.465494383E0,1.027341661E1
1.299258287E1,-2.837681823E0,-9.828449135E0,-1.690581780E0,1.036865070E1
1.300255388E1,-2.018604439E0,-1.000253829E1,-1.752456139E0,1.035358095E1
1.301252487E1,-1.206967052E0,-1.002595522E1,-1.503006026E0,1.020958249E1
1.302249587E1,-5.698526806E-1,-9.811606815E0,-7.862812284E-1,9.859543526E0
1.303246687E1,-1.323271680E-1,-9.303312451E0,-6.152586490E-2,9.304456915E0
1.304243788E1,2.163177431E-1,-8.497535144E0,4.213117683E-1,8.510722678E0
1.305240787E1,8.484187120E-1,-7.595922557E0,5.670851934E-1,7.664165931E0
1.306237887E1,1.743981770E0,-7.017620065E0,1.592918953E-1,7.232830546E0
1.307234988E1,2.672579257E0,-6.369071463E0,-6.744810033E-1,6.939933416E0
1.308232087E1,3.318650393E0,-5.775342847E0,-1.677051616E0,6.868808307E0
1.309229187E1,3.646423668E0,-5.530628686E0,-2.560052515E0,7.101980577E0
1.310226287E1,3.903404118E0,-5.560787455E0,-3.146760087E0,7.487390726E0
1.311223387E1,4.134445150E0,-5.537575763E0,-3.094394178E0,7.571899191E0
1.312220487E1,4.344488246E0,-5.309489329E0,-2.319562675E0,7.241935243E0
1.313217587E1,4.498076475E0,-4.845966803E0,-1.156824839E0,6.712252226E0
1.314214688E1,4.729716847E0,-4.262421405E0,-2.370171788E-1,6.371391907E0
1.315211787E1,5.105063653E0,-3.659377882E0,2.709479865E-1,6.286981326E0
1.316208887E1,5.381241682E0,-2.991623808E0,6.666220531E-1,6.192895931E0
1.317205987E1,5.447370182E0,-2.304845526E0,8.082851779E-1,5.969881048E0
1.318203088E1,5.535311136E0,-1.711412194E0,7.870995462E-1,5.847061379E0
1.319200187E1,5.622680817E0,-1.186564363E0,7.381036797E-1,5.793726918E0
1.320197287E1,5.641606500E0,-6.647728711E-1,7.299023750E-1,5.727338330E0
1.321194387E1,5.625265287E0,-1.049908501E-1,6.929736999E-1,5.668760462E0
1.322191488E1,5.826371498E0,4.723959678E-1,3.457832837E-1,5.855709083E0
1.323188587E1,6.206465659E0,1.452326746E0,1.223041633E-1,6.375298209E0
1.324185687E1,6.511324280E0,2.476685253E0,7.935548723E-3,6.966446490E0
1.325182787E1,6.615216438E0,3.132195550E0,-4.114232495E-1,7.330825777E0
1.326179887E1,6.441381640E0,3.333353802E0,-1.070862583E0,7.331397662E0
1.327176887E1,6.085879700E0,3.239156327E0,-1.695685523E0,7.099677093E0
1.328173988E1,5.603574455E0,3.128057476E0,-2.029546334E0,6.730813366E0
1.329171087E1,5.029560311E0,2.982236688E0,-2.213681294E0,6.252247393E0
1.330168187E1,4.752232720E0,2.812324203E0,-1.912551588E0,5.843863177E0
1.331165287E1,4.650098820E0,2.865288867E0,-1.334546573E0,5.622660747E0
1.332162388E1,4.837910802E0,3.133953223E0,-7.467350471E-1,5.812457050E0
1.333159487E1,5.305118535E0,3.445709220E0,-4.522692668E-1,6.342061352E0
1.334156587E1,6.136492029E0,3.986217064E0,-5.578889850E-1,7.338780622E0
1.335153687E1,6.846696596E0,4.719612274E0,-7.282461512E-1,8.347594668E0
1.336150788E1,7.350374583E0,5.230910352E0,-1.120790496E0,9.091017597E0
1.337147887E1,7.670887955E0,5.547648761E0,-1.509582682E0,9.586332389E0
1.338144987E1,7.750249874E0,5.751692029E0,-1.661667445E0,9.793338195E0
1.339142087E1,7.638772123E0,5.870453072E0,-1.547936031E0,9.757518372E0
1.340139187E1,7.425304313E0,6.024206777E0,-1.283794642E0,9.647504346E0
1.341136287E1,7.296625807E0,6.197995382E0,-9.358670381E-1,9.619342079E0
1.342133387E1,7.297084229E0,6.423228375E0,-4.701089756E-1,9.732743881E0
1.343130488E1,7.303728420E0,6.657685935E0,-2.055030254E-1,9.884910841E0
1.344127587E1,7.433855866E0,6.981491289E0,-1.829897833E-1,1.019984897E1
1.345124687E1,7.510035730E0,7.313404393E0,-3.228095734E-1,1.048764638E1
1.346121787E1,7.444018326E0,7.496405286E0,-5.947374071E-1,1.058126711E1
1.347118787E1,7.236138700E0,7.521757059E0,-8.808608186E-1,1.047446649E1
1.348115887E1,6.910134208E0,7.389215298E0,-1.143410157E0,1.018124964E1
1.349112987E1,6.642399559E0,6.991497629E0,-1.415377313E0,9.747092076E0
1.350110088E1,6.525292693E0,6.371502151E0,-1.563582741E0,9.253122467E0
1.351107187E1,6.671088923E0,5.606075310E0,-1.554583584E0,8.851454000E0
1.352104287E1,6.864721223E0,4.885198989E0,-1.307228090E0,8.526336371E0
1.353101387E1,6.939951500E0,4.347500732E0,-9.130582193E-1,8.239985725E0
1.354098487E1,6.937175242E0,3.939571486E0,-6.251074067E-1,8.002211138E0
1.355095587E1,6.876642526E0,3.594286970E0,-3.600151142E-1,7.767671604E0
1.356092687E1,6.773356140E0,3.259192396E0,-1.944538343E-1,7.519208786E0
1.357089788E1,6.653877643E0,2.990195918E0,-2.160525718E-1,7.298084546E0
1.358086887E1,6.621496933E0,2.656797622E0,-3.884352136E-1,7.145185592E0
1.359083987E1,6.782410553E0,2.046596814E0,-7.290065816E-1,7.121874896E0
1.360081087E1,7.091175115E0,1.263674519E0,-9.941547149E-1,7.271174691E0
1.361078188E1,7.314876137E0,6.789026678E-1,-1.026060924E0,7.417622446E0
1.362075287E1,7.316060198E0,4.137197435E-1,-9.010663109E-1,7.382941239E0
1.363072387E1,7.073328828E0,4.140992278E-1,-7.764666769E-1,7.127857979E0
1.364069487E1,6.781668541E0,3.980796111E-1,-6.646202588E-1,6.825775829E0
1.365066588E1,6.511009115E0,1.637284702E-1,-6.874954435E-1,6.549251613E0
1.366063687E1,6.320798605E0,-2.328326190E-1,-9.383399718E-1,6.394309027E0
1.367060687E1,6.285889558E0,-7.358440232E-1,-1.257981670E0,6.452626740E0
1.368057787E1,6.337565496E0,-1.305994327E0,-1.452336102E0,6.631714541E0
1.369054887E1,6.336551589E0,-1.755896056E0,-1.338562149E0,6.710201608E0
1.370051987E1,6.192390826E0,-1.821581923E0,-1.033286036E0,6.536936964E0
1.371049088E1,5.776538018E0,-1.431058668E0,-5.749476519E-1,5.978869892E0
1.372046187E1,5.179087064E0,-8.794428688E-1,-2.637538648E-1,5.259841127E0
1.373043287E1,4.704316542E0,-5.230100513E-1,-2.048314726E-1,4.737730424E0
1.374040387E1,4.434400297E0,-5.148128396E-1,-6.138670117E-2,4.464605983E0
1.375037488E1,4.319673248E0,-8.445180345E-1,-8.487701297E-2,4.402271208E0
1.376034587E1,4.221689701E0,-1.507273031E0,-3.290818816E-1,4.494755923E0
1.377031687E1,4.141753585E0,-2.178379022E0,-4.975480583E-1,4.706061198E0
1.378028787E1,3.883957449E0,-2.702614065E0,-4.918160328E-1,4.757218857E0
1.379025888E1,3.499816430E0,-3.193718199E0,-3.204215705E-1,4.748812585E0
1.380022987E1,3.100346351E0,-3.521715422E0,4.174414963E-2,4.692160439E0
1.381020087E1,2.766537580E0,-3.734215226E0,5.427248159E-1,4.678957551E0
1.382017187E1,2.580896085E0,-3.845127844E0,1.058110098E0,4.750329432E0
1.383014287E1,2.465487835E0,-3.909813544E0,1.417911204E0,4.834846885E0
1.384011387E1,2.358997759E0,-4.102719913E0,1.547386393E0,4.979114957E0
1.385008487E1,2.111299179E0,-4.361605678E0,1.809462984E0,5.172556873E0
1.386005487E1,1.585472524E0,-4.496061817E0,2.188734441E0,5.245841538E0
1.387002587E1,9.593450707E-1,-4.752113437E0,2.516391941E0,5.462156486E0
1.387999687E1,1.634799635E-1,-5.245721934E0,2.791661020E0,5.944551754E0
1.388996788E1,-6.198832119E-1,-5.905238158E0,2.865393240E0,6.592918270E0
1.389993887E1,-1.026292766E0,-6.915887868E0,2.548908599E0,7.441754961E0
1.390990987E1,-1.439259973E0,-7.835430357E0,2.183848800E0,8.260425760E0
1.391988087E1,-2.234921013E0,-8.053844912E0,1.864401083E0,8.563602116E0
1.392985200E1,-3.261292132E0,-7.937133318E0,1.142740066E0,8.656787310E0
1.393982300E1,-4.231994834E0,-7.689989054E0,2.303604162E-1,8.780590974E0
1.394979400E1,-4.793625745E0,-7.433875161E0,-5.216812715E-1,8.860784336E0
1.395976500E1,-4.971088155E0,-7.322007986E0,-1.028625513E0,8.909634607E0
1.396973600E1,-4.657358723E0,-7.000011760E0,-7.351096129E-1,8.439878024E0
1.397970700E1,-4.079105347E0,-6.462648548E0,4.057125664E-1,7.653073199E0
1.398967800E1,-3.453724583E0,-6.411459099E0,1.181103648E0,7.377670845E0
1.399964900E1,-2.749293557E0,-6.210476264E0,2.176598252E0,7.132055134E0
1.400962000E1,-2.057360369E0,-6.205930054E0,3.089044560E0,7.231078468E0
1.401959100E1,-1.721269430E0,-6.121631915E0,3.970160025E0,7.496620331E0
1.402956200E1,-1.743166668E0,-6.055899855E0,4.513434480E0,7.751364002E0
1.403953200E1,-2.308074943E0,-6.527648537E0,4.510436904E0,8.263258826E0
1.404950300E1,-3.194238601E0,-7.323002012E0,3.873466959E0,8.878809886E0
1.405947400E1,-4.068794952E0,-7.882939569E0,3.137120368E0,9.409428931E0
1.406944500E1,-4.861812465E0,-7.948869849E0,2.561266397E0,9.663427854E0
1.407941600E1,-5.382548534E0,-7.856528281E0,1.988086212E0,9.728789860E0
1.408938700E1,-5.726346104E0,-7.729708021E0,1.574779575E0,9.747787261E0
1.409935800E1,-5.810821413E0,-7.404230363E0,1.515674311E0,9.533390864E0
1.410932900E1,-5.601975242E0,-7.085247792E0,1.665492840E0,9.184591950E0
1.411930000E1,-5.341841973E0,-7.247174735E0,1.642094622E0,9.151682471E0
1.412927100E1,-5.306186237E0,-7.702108578E0,1.431295042E0,9.461854703E0
1.413924200E1,-5.542571039E0,-8.089491293E0,9.025240217E-1,9.847563796E0
1.414921300E1,-6.034737613E0,-8.267741323E0,2.174252057E-1,1.023820679E1
1.415918400E1,-6.453733884E0,-8.195714736E0,-4.216731262E-1,1.044022171E1
1.416915500E1,-6.688190274E0,-8.047695980E0,-9.055571187E-1,1.050320586E1
1.417912600E1,-6.520595625E0,-7.875288488E0,-1.282298924E0,1.030449546E1
1.418909700E1,-5.951831696E0,-7.728015836E0,-1.554186704E0,9.877349119E0
1.419906800E1,-5.194488630E0,-7.542449770E0,-1.590947857E0,9.295287825E0
1.420903800E1,-4.281990282E0,-7.486561498E0,-1.404585107E0,8.738243712E0
1.421900900E1,-3.523171379E0,-7.627058396E0,-1.026447133E0,8.463944119E0
1.422898000E1,-3.140880420E0,-7.877342615E0,-4.699269810E-1,8.493437928E0
1.423895100E1,-2.864282561E0,-8.158068023E0,-1.195989490E-2,8.646290042E0
1.424892200E1,-2.589804318E0,-8.320575594E0,4.488113697E-1,8.725852180E0
1.425889300E1,-2.329804950E0,-8.335453250E0,7.315322864E-1,8.685787902E0
1.426886400E1,-1.776124499E0,-8.167661549E0,6.930818734E-1,8.387232911E0
1.427883500E1,-8.643909663E-1,-7.460720313E0,6.121654719E-1,7.535533551E0
1.428880600E1,2.022376478E-2,-6.687551758E0,3.922841433E-1,6.699077875E0
1.429877700E1,7.998306888E-1,-6.163826593E0,1.578982115E-2,6.215523849E0
1.430874800E1,1.269925193E0,-5.915580128E0,-4.307465431E-1,6.065669034E0
1.431871900E1,1.427856733E0,-6.022359642E0,-7.829193717E-1,6.238633925E0
1.432869000E1,1.444429497E0,-6.170602931E0,-8.527757648E-1,6.394524502E0
1.433866100E1,1.530661309E0,-6.309883608E0,-6.149621952E-1,6.521942478E0
1.434863200E1,1.771739087E0,-6.443343966E0,-2.684515178E-1,6.687885097E0
1.435860300E1,2.082897499E0,-6.578257942E0,1.498846024E-2,6.900156824E0
1.436857300E1,2.455398465E0,-6.549504259E0,1.714926955E-1,6.996741914E0
1.437854400E1,2.963037940E0,-6.345031221E0,2.221494636E-1,7.006308972E0
1.438851500E1,3.411324084E0,-5.783403234E0,4.657055837E-1,6.730658709E0
1.439848600E1,3.669861063E0,-5.088353480E0,7.298096967E-1,6.315999015E0
1.440845700E1,3.937069463E0,-4.472598110E0,8.141397026E-1,6.013939912E0
1.441842800E1,4.455965413E0,-3.885169284E0,7.403153890E-1,5.958039527E0
1.442839900E1,5.326014145E0,-3.229937022E0,5.528565788E-1,6.253364713E0
1.443837000E1,6.209982174E0,-2.446451932E0,4.764100814E-1,6.691485054E0
1.444834100E1,6.796406448E0,-1.897275299E0,3.254753190E-1,7.063761629E0
1.445831200E1,7.113226719E0,-1.530970627E0,1.863621649E-1,7.278502337E0
1.446828300E1,7.185986547E0,-1.069269801E0,2.144480959E-1,7.268268607E0
1.447825400E1,7.044517257E0,-4.778759784E-1,3.901890859E-1,7.071480493E0
1.448822500E1,6.782444467E0,2.181239480E-1,6.493262815E-1,6.816946210E0
1.449819600E1,6.403241422E0,9.147068417E-1,8.506315908E-1,6.523937724E0
1.450816700E1,5.970876662E0,1.419719163E0,8.203433061E-1,6.191924883E0
1.451813700E1,5.758219861E0,1.899843396E0,5.773681068E-1,6.090965016E0
1.452810800E1,5.684709250E0,2.407885160E0,2.908367059E-1,6.180486728E0
1.453807900E1,5.682725875E0,2.842712767E0,-9.630101055E-2,6.354814170E0
1.454805000E1,5.728393798E0,3.241189404E0,-5.580407202E-1,6.605392775E0
1.455802100E1,5.671702704E0,3.669908425E0,-1.029826677E0,6.833519035E0
1.456799200E1,5.626969750E0,4.156886179E0,-1.419805556E0,7.138510986E0
1.457796300E1,5.494884657E0,4.476875641E0,-1.685016401E0,7.285290191E0
1.458793400E1,5.416123247E0,4.706096435E0,-1.654373482E0,7.363333911E0
1.459790500E1,5.330522933E0,4.980902706E0,-1.534274304E0,7.455056281E0
1.460787600E1,5.354678366E0,5.171576316E0,-1.363813934E0,7.568207875E0
1.461784700E1,5.621678604E0,5.369091752E0,-1.199944546E0,7.865766554E0
1.462781800E1,6.122955140E0,5.672159956E0,-1.066555670E0,8.414363862E0
1.463778900E1,6.788745427E0,6.024455284E0,-1.124471025E0,9.145794718E0
1.464776000E1,7.439596662E0,6.298428912E0,-1.317950860E0,9.836401767E0
1.465773100E1,8.002403448E0,6.578422249E0,-1.617584409E0,1.048478324E1
1.466770200E1,8.399755080E0,6.935909320E0,-1.996684982E0,1.107472232E1
1.467767200E1,8.419631521E0,7.147034150E0,-2.402657311E0,1.130234729E1
1.468764300E1,8.159789443E0,7.264393031E0,-2.649462290E0,1.124158442E1
1.469761400E1,7.752487019E0,7.235813595E0,-2.678156916E0,1.093757641E1
1.470758500E1,7.207969739E0,7.210056610E0,-2.435879874E0,1.048204440E1
1.471755600E1,6.720487955E0,7.099419689E0,-2.089481171E0,9.996631924E0
1.472752700E1,6.322607734E0,6.799249949E0,-1.806763763E0,9.458835220E0
1.473749800E1,6.066743517E0,6.698004826E0,-1.594944867E0,9.176736603E0
1.474746900E1,5.953363082E0,6.738014399E0,-1.504122552E0,9.116235773E0
1.475744000E1,5.779199671E0,6.824132191E0,-1.500000411E0,9.067410337E0
1.476741100E1,5.551772218E0,6.882176331E0,-1.573682199E0,8.981258346E0
1.477738200E1,5.329113754E0,6.790064558E0,-1.672081482E0,8.792058155E0
1.478735300E1,5.194747077E0,6.331763304E0,-1.899197863E0,8.407352512E0
1.479732400E1,5.195532943E0,5.603950431E0,-2.123157917E0,7.931306484E0
1.480729500E1,5.299712200E0,4.883536041E0,-2.161130905E0,7.523719855E0
1.481726500E1,5.446505964E0,4.308113303E0,-2.060113384E0,7.243502923E0
1.482723600E1,5.469590771E0,4.070833291E0,-1.804529103E0,7.052973286E0
1.483720700E1,5.422972090E0,3.868376958E0,-1.533888388E0,6.835625806E0
1.484717800E1,5.467184642E0,3.451351783E0,-1.355595234E0,6.606025695E0
1.485714900E1,5.654753380E0,2.988427135E0,-1.218962177E0,6.510975451E0
1.486712000E1,6.174586639E0,2.364407603E0,-1.264694273E0,6.731671047E0
1.487709100E1,6.856601779E0,1.638697389E0,-1.395686668E0,7.186533126E0
1.488706200E1,7.493898584E0,8.426568657E-1,-1.514942093E0,7.691790177E0
1.489703300E1,7.861072152E0,2.028211999E-1,-1.455480442E0,7.997250474E0
1.490700400E1,7.977805381E0,-1.015608734E-1,-1.291466627E0,8.082300375E0
1.491697500E1,7.933758305E0,-1.840960765E-1,-1.106006980E0,8.012594065E0
1.492694629E1,7.906557643E0,-2.867661667E-1,-9.559623103E-1,7.969300630E0
1.493691729E1,7.964966649E0,-5.702304107E-1,-8.309267664E-1,8.028467833E0
1.494688829E1,8.026627877E0,-8.904157537E-1,-7.591390380E-1,8.111466413E0
1.495685829E1,8.097483852E0,-1.206192881E0,-7.520539668E-1,8.221297414E0
1.496682929E1,8.014445204E0,-1.561815274E0,-6.095348096E-1,8.187925962E0
1.497680029E1,7.707342421E0,-1.917742308E0,-3.694554439E-1,7.950934541E0
1.498677129E1,7.203371488E0,-2.175735496E0,2.961819381E-2,7.524843054E0
1.499674229E1,6.514202864E0,-2.527219230E0,4.439308450E-1,7.001339200E0
1.500671329E1,5.773582835E0,-2.935789915E0,8.157506105E-1,6.528289994E0
1.501668429E1,4.994495729E0,-3.365519335E0,1.231687618E0,6.147256491E0
1.502665529E1,4.194237608E0,-3.821583445E0,1.470828213E0,5.861694702E0
1.503662629E1,3.367947099E0,-4.310735779E0,1.453869241E0,5.660322110E0
1.504659729E1,2.483208992E0,-4.806914127E0,1.264594578E0,5.556253213E0
1.505656829E1,1.766033374E0,-5.181285033E0,1.098197439E0,5.583066011E0
1.506653929E1,1.304883941E0,-5.483124737E0,9.531578395E-1,5.716282782E0
1.507651029E1,1.120804237E0,-5.670724465E0,9.028928348E-1,5.850515666E0
1.508648129E1,1.153359194E0,-5.796041991E0,9.506505534E-1,5.985655909E0
1.509645129E1,1.141927888E0,-5.926378766E0,1.027359591E0,6.122208124E0
1.510642229E1,1.001073725E0,-6.028905015E0,1.122436487E0,6.213671053E0
1.511639329E1,7.647409630E-1,-6.054500617E0,1.238136512E0,6.226940539E0
1.512636429E1,5.082961178E-1,-6.107248934E0,1.338941925E0,6.272927543E0
1.513633529E1,2.433523446E-1,-6.196100884E0,1.468957689E0,6.372497409E0
1.514630629E1,1.548108816E-2,-6.378309479E0,1.707558586E0,6.602940845E0
1.515627729E1,-1.893281651E-1,-6.567046491E0,1.944373451E0,6.851462098E0
1.516624829E1,-3.732049710E-1,-6.678945242E0,2.079283919E0,7.005070528E0
1.517621929E1,-6.942597950E-1,-6.676400533E0,2.174375726E0,7.055794111E0
1.518619029E1,-1.126478375E0,-6.590470437E0,2.271469911E0,7.061361743E0
1.519616129E1,-1.583549960E0,-6.513588907E0,2.356317103E0,7.105399440E0
1.520613229E1,-2.001246395E0,-6.443127619E0,2.475866058E0,7.186709496E0
1.521610329E1,-2.352457649E0,-6.397352107E0,2.535190447E0,7.272369735E0
1.522607329E1,-2.625377024E0,-6.342585915E0,2.584718702E0,7.334969078E0
1.523604429E1,-2.734760302E0,-6.308672065E0,2.555806560E0,7.335557532E0
1.524601529E1,-2.788810210E0,-6.330641223E0,2.481191118E0,7.349203361E0
1.525598629E1,-2.873942161E0,-6.433052282E0,2.269775388E0,7.402404036E0
1.526595729E1,-3.114132332E0,-6.574705174E0,1.981765226E0,7.540023986E0
1.527592829E1,-3.468413374E0,-6.739308388E0,1.780556688E0,7.785791610E0
1.528589929E1,-3.846629409E0,-6.887357549E0,1.671643234E0,8.063909903E0
1.529587029E1,-4.244285681E0,-6.988053619E0,1.602827645E0,8.331621138E0
1.530584129E1,-4.674989832E0,-6.997909101E0,1.650620154E0,8.576176806E0
1.531581229E1,-5.114070704E0,-6.863727781E0,1.766794682E0,8.739910850E0
1.532578329E1,-5.532676381E0,-6.713487083E0,1.809587822E0,8.885720277E0
1.533575429E1,-5.809778270E0,-6.627847009E0,1.895039324E0,9.015156879E0
1.534572529E1,-6.055037976E0,-6.514613339E0,1.945490270E0,9.104317889E0
1.535569529E1,-6.265589195E0,-6.411591246E0,1.973664201E0,9.179404155E0
1.536566629E1,-6.391495535E0,-6.332697104E0,1.943982565E0,9.205071211E0
1.537563729E1,-6.396814747E0,-6.218895670E0,1.848806559E0,9.111091480E0
1.538560829E1,-6.435878826E0,-6.122759843E0,1.762821060E0,9.056283037E0
1.539557929E1,-6.456724150E0,-6.084216167E0,1.652526054E0,9.024290303E0
1.540555029E1,-6.405168664E0,-6.017859625E0,1.507712450E0,8.917063245E0
1.541552129E1,-6.265064700E0,-5.993467380E0,1.367378689E0,8.777380669E0
1.542549229E1,-6.057223665E0,-6.041247903E0,1.222996609E0,8.641895362E0
1.543546329E1,-5.794744493E0,-6.139360088E0,9.347534359E-1,8.493795972E0
1.544543429E1,-5.516758506E0,-6.287380013E0,5.181638789E-1,8.380588622E0
1.545540529E1,-5.152326697E0,-6.569030451E0,4.207510203E-2,8.348676648E0
1.546537629E1,-4.730165913E0,-7.021273406E0,-3.825111070E-1,8.474612944E0
1.547534729E1,-4.274670737E0,-7.482684209E0,-7.416150789E-1,8.649471996E0
1.548531729E1,-3.689600093E0,-7.754937587E0,-1.051824049E0,8.652082966E0
1.549528829E1,-3.117114412E0,-7.742085992E0,-1.197511812E0,8.431508305E0
1.550525929E1,-2.708696923E0,-7.625659742E0,-1.283660595E0,8.193626184E0
1.551523029E1,-2.279198468E0,-7.541786111E0,-1.293057070E0,7.984064127E0
1.552520129E1,-1.750723025E0,-7.464336816E0,-1.229925560E0,7.764925762E0
1.553517229E1,-1.069915919E0,-7.586952928E0,-1.132373830E0,7.745246626E0
1.554514329E1,-3.303647608E-1,-7.734051917E0,-9.981378382E-1,7.805189240E0
1.555511429E1,3.734546471E-1,-7.695508241E0,-8.333358192E-1,7.749500890E0
1.556508529E1,9.938641083E-1,-7.418820920E0,-6.615612879E-1,7.514275284E0
1.557505629E1,1.656719093E0,-7.009198321E0,-6.389158988E-1,7.230614965E0
1.558502729E1,2.465019473E0,-6.451069892E0,-6.920983717E-1,6.940578068E0
1.559499829E1,3.184918724E0,-5.966375476E0,-8.149431100E-1,6.812156477E0
1.560496829E1,3.710454188E0,-5.583089905E0,-1.114763478E0,6.795664852E0
1.561493929E1,4.100530130E0,-5.382213489E0,-1.465307857E0,6.923127653E0
1.562491029E1,4.423584702E0,-5.405307652E0,-1.687089823E0,7.185521867E0
1.563488129E1,4.781300399E0,-5.439536083E0,-1.733428130E0,7.446754956E0
1.564485229E1,5.070831129E0,-5.366770992E0,-1.611305231E0,7.557239163E0
1.565482329E1,5.306720672E0,-5.045634892E0,-1.284262273E0,7.434315392E0
1.566479429E1,5.446652144E0,-4.392239533E0,-8.328885072E-1,7.046381409E0
1.567476529E1,5.624832008E0,-3.615042831E0,-4.450850853E-1,6.701146956E0
1.568473629E1,5.990520968E0,-2.812586743E0,-2.300817963E-1,6.621927460E0
1.569470729E1,6.510519118E0,-1.962336098E0,-1.289568329E-1,6.801047862E0
1.570467829E1,7.106084345E0,-9.869643939E-1,-1.174901506E-1,7.175258697E0
1.571464929E1,7.733167233E0,-6.566540122E-2,-1.275406373E-1,7.734497658E0
1.572461929E1,8.078585651E0,8.275880063E-1,-2.295251414E-1,8.124107940E0
1.573459029E1,8.153361599E0,1.664029282E0,-2.729266843E-1,8.325910628E0
1.574456129E1,7.984442555E0,2.285366111E0,-2.277364781E-1,8.308193852E0
1.575453229E1,7.640844376E0,2.751905508E0,-1.392312679E-1,8.122491739E0
1.576450329E1,7.203927559E0,3.165366220E0,-8.552722335E-2,7.869144203E0
1.577447429E1,6.726287808E0,3.511189849E0,5.041264683E-2,7.587749552E0
1.578444529E1,6.239494241E0,3.769144446E0,2.083105659E-1,7.292539443E0
1.579441629E1,5.828067775E0,4.020301069E0,3.798783982E-1,7.090380968E0
1.580438729E1,5.478723537E0,4.130694162E0,5.346463028E-1,6.882215670E0
1.581435829E1,5.214930496E0,4.083095487E0,6.479258734E-1,6.654846112E0
1.582432929E1,5.040176516E0,3.887440635E0,7.081738293E-1,6.404458149E0
1.583429929E1,5.016249125E0,3.540676773E0,6.096236873E-1,6.170153024E0
1.584427029E1,5.256749783E0,3.172673485E0,4.587835036E-1,6.157090029E0
1.585424129E1,5.723589141E0,3.240693560E0,3.880577758E-2,6.577467088E0
1.586421229E1,5.856449575E0,3.987559585E0,-4.611184430E-1,7.100088964E0
1.587418329E1,5.570672173E0,4.650878254E0,-1.022950644E0,7.328675529E0
1.588415429E1,5.094940953E0,5.005001421E0,-1.576348529E0,7.313913947E0
1.589412529E1,4.568588926E0,5.133491061E0,-1.838616178E0,7.113736339E0
1.590409629E1,4.138771505E0,5.026827908E0,-1.831058944E0,6.763963723E0
1.591406729E1,3.820884995E0,4.801942239E0,-1.754726028E0,6.382544544E0
1.592403829E1,3.549654880E0,4.554462930E0,-1.770875015E0,6.039799721E0
1.593400900E1,3.212229607E0,4.399731570E0,-1.870658773E0,5.759810864E0
1.594398000E1,2.840900715E0,4.278622870E0,-2.013045345E0,5.516310551E0
1.595395000E1,2.543163418E0,4.114217293E0,-2.105907315E0,5.275349251E0
1.596392100E1,2.369110811E0,4.056024048E0,-2.201051016E0,5.187354113E0
1.597389200E1,2.272941948E0,4.176090190E0,-2.312884862E0,5.287289547E0
1.598386300E1,2.298097839E0,4.353641478E0,-2.454247148E0,5.500797838E0
1.599383400E1,2.454842979E0,4.564803731E0,-2.585422415E0,5.792071841E0
1.600380500E1,2.767890041E0,4.702876373E0,-2.588998572E0,6.039964823E0
1.601377600E1,3.270473430E0,4.822456611E0,-2.479347783E0,6.332396833E0
1.602374700E1,3.877155967E0,5.138265313E0,-2.255758881E0,6.820744604E0
1.603371800E1,4.287329959E0,5.437948564E0,-2.027029692E0,7.215353916E0
1.604368900E1,4.537278548E0,5.466556651E0,-1.944434263E0,7.365525293E0
1.605366000E1,4.633832743E0,5.292586198E0,-2.051775109E0,7.327595489E0
1.606363000E1,4.586281431E0,5.150878342E0,-2.081198005E0,7.203951013E0
1.607360100E1,4.517070571E0,5.006732197E0,-1.974232697E0,7.026299778E0
1.608357200E1,4.523072153E0,4.780492314E0,-1.688976427E0,6.794404303E0
1.609354300E1,4.714226988E0,4.473863740E0,-1.370993292E0,6.642214651E0
1.610351400E1,4.891972988E0,4.324666185E0,-1.057317946E0,6.614533889E0
1.611348500E1,5.105358937E0,4.204451525E0,-1.027832923E0,6.693171372E0
1.612345600E1,5.361368750E0,4.030313256E0,-1.063751345E0,6.791116752E0
1.613342700E1,5.369843704E0,3.734095650E0,-1.141008121E0,6.639321597E0
1.614339800E1,5.223248160E0,3.288039050E0,-1.335131149E0,6.314752357E0
1.615336900E1,5.022801515E0,2.771631090E0,-1.574634271E0,5.948945036E0
1.616334000E1,4.877489435E0,2.219993071E0,-1.825415211E0,5.661308428E0
1.617331000E1,4.890486626E0,1.660665963E0,-1.991788523E0,5.535511937E0
1.618328100E1,4.997483071E0,1.102125891E0,-1.964575582E0,5.481703726E0
1.619325200E1,5.222884464E0,5.614590025E-1,-1.766261415E0,5.541970563E0
1.620322300E1,5.358639269E0,1.887276560E-1,-1.436322040E0,5.551004769E0
1.621319400E1,5.375610228E0,-2.118750286E-1,-1.246014758E0,5.522194232E0
1.622316500E1,5.415928534E0,-7.197735357E-1,-1.049428152E0,5.563421185E0
1.623313600E1,5.475164922E0,-1.190909429E0,-7.456939504E-1,5.652588403E0
1.624310700E1,5.570257021E0,-1.602384426E0,-3.605273303E-1,5.807355601E0
1.625307800E1,5.708469411E0,-2.147049056E0,-1.168223986E-1,6.100007388E0
1.626304900E1,6.000116833E0,-2.817849821E0,-1.263700247E-2,6.628864105E0
1.627302000E1,6.366608031E0,-3.282897593E0,3.157508147E-1,7.170133403E0
1.628299000E1,6.584739581E0,-3.583201234E0,6.732159582E-1,7.526708853E0
1.629296100E1,6.477727348E0,-3.633663290E0,8.287884396E-1,7.473376130E0
1.630293200E1,6.169784905E0,-3.499721705E0,6.538578737E-1,7.123329833E0
1.631290300E1,5.780795960E0,-3.396203769E0,3.314283693E-1,6.712797237E0
1.632287400E1,5.329846410E0,-3.457020659E0,7.388190866E-2,6.353244299E0
1.633284500E1,4.688506256E0,-3.629588365E0,-4.554279327E-2,5.929424656E0
1.634281600E1,3.872981640E0,-3.702999865E0,-3.272394240E-3,5.358377133E0
1.635278700E1,2.972740225E0,-3.699091586E0,2.088625431E-3,4.745573450E0
1.636275800E1,2.141486599E0,-3.790420125E0,2.292780966E-2,4.353593373E0
1.637272900E1,1.511798776E0,-4.044431943E0,3.466667980E-2,4.317889191E0
1.638269900E1,1.014945660E0,-4.468200127E0,1.006773591E-2,4.582033220E0
1.639267000E1,5.552363956E-1,-4.880991625E0,5.113390088E-4,4.912470556E0
1.640264100E1,6.349491477E-2,-5.257008229E0,5.336461365E-3,5.257394374E0
1.641261200E1,-5.163284379E-1,-5.519610193E0,8.477848738E-2,5.544355610E0
1.642258300E1,-1.130150426E0,-5.708065953E0,1.902324370E-1,5.821979499E0
1.643255400E1,-1.669050286E0,-5.860704010E0,3.276303104E-1,6.102534061E0
1.644252500E1,-2.155933315E0,-5.999079537E0,5.954421428E-1,6.402464768E0
1.645249600E1,-2.580549930E0,-5.986524396E0,9.215223563E-1,6.583837463E0
1.646246700E1,-2.828136243E0,-5.941858685E0,1.221469609E0,6.692983434E0
1.647243800E1,-2.969196228E0,-5.866151276E0,1.537497289E0,6.752166685E0
1.648240800E1,-2.969642955E0,-5.787523767E0,1.833614323E0,6.758428228E0
1.649237900E1,-2.885436618E0,-5.790822766E0,2.083205355E0,6.796993257E0
1.650235000E1,-2.767171419E0,-5.879864166E0,2.233361268E0,6.871531330E0
1.651232100E1,-2.751743540E0,-5.963785159E0,2.289148383E0,6.955503307E0
1.652229200E1,-2.864711747E0,-5.986710337E0,2.271532476E0,7.014779672E0
1.653226300E1,-3.061863486E0,-6.057897849E0,2.197513450E0,7.134577754E0
1.654223400E1,-3.293483393E0,-6.142928644E0,2.207334141E0,7.311287793E0
1.655220500E1,-3.477537954E0,-6.116561210E0,2.427678862E0,7.443064954E0
1.656217600E1,-3.635708646E0,-6.023305721E0,2.628506746E0,7.510501773E0
1.657214700E1,-3.741523368E0,-5.885141863E0,2.780291109E0,7.507590193E0
1.658211700E1,-3.872731964E0,-5.690522552E0,2.979244376E0,7.500399778E0
